# recorded output from l2race
# format version: 1.1
# Creation_time="03:45AM July 01 2021"
# Creation_time="1625103926733" (epoch ms)
# Username="marcinpaluch"
# track_name="oval_easy"
# car_name="MarcinMac.local:marcinpaluch-XG"
# length_m="4.0"
# width_m="2.0"
time,cmd.auto,cmd.steering,cmd.throttle,cmd.brake,cmd.reverse,pos.x,pos.y,vel.x,vel.y,speed,accel.x,accel.y,steering_angle,body_angle,yaw_rate,drift_angle
3.749344112000001,1,0.587574330008946,1.0,0,0,54.602453444005036,18.900000051949533,0.11769842645602,6.232883783961947e-06,0.11769842662105551,2.823157894736842,0.0,4.777361629888784,0.00303417764736355,0.2185396316810429,0.000000
3.802742813,1,0.587574330008946,1.0,0,0,54.61276339269436,18.900003220187102,0.2684513372939632,0.00016967862314056447,0.26845139091789477,2.823157894736842,0.0,10.896402027450685,0.03621463682355189,1.148133981582204,0.000000
3.853970628000001,1,0.587574330008946,1.0,0,0,54.63021994236841,18.900027978662482,0.4130744836351718,0.0009609007215272315,0.41307560126526527,2.823157894736842,0.0,16.76667721380471,0.13328215309579988,2.764971026151187,0.000000
3.904709898,1,0.585901072616942,1.0,0,0,54.65481298689328,18.900120517141804,0.5563130524297684,0.002892483146310298,0.5563205719389477,2.823157894736842,0.0,16.76667721380471,0.29789986501179566,3.7237983990157093,0.000000
3.9573245860000004,1,0.5838155332814977,1.0,0,0,54.68799043597493,18.90035732100858,0.7048311167005882,0.0063968094544318566,0.7048601437452642,2.823157894736842,0.0,16.76667721380471,0.5199828909938599,4.718065818888471,0.000000
4.000238559,1,0.5813057918289917,1.0,0,0,54.72083638513109,18.9007159764683,0.825945764154693,0.010544141063571084,0.8260130654147356,2.823157894736842,0.0,16.768854797200504,0.731406336179848,5.52977820333927,0.000000
4.051293146000001,1,0.5782430205752398,1.0,0,0,54.76668207014734,18.901419684425505,0.9699923059203713,0.017392711485435523,0.970148225766318,2.823157894736842,0.0,15.592876684386226,1.0272475132485086,6.01504365596111,0.000000
4.104254812000001,1,0.5748111438430578,1.0,0,0,54.82200978999229,18.902583949270333,1.119340491083032,0.02705341512228149,1.119667371252633,2.823157894736842,0.0,16.90292864013486,1.3845159800125402,7.559198964823094,0.000000
4.155618410000001,1,0.5719658856843325,1.0,0,0,54.88322045834591,18.904276883930105,1.2640616397365179,0.03938045580170653,1.2646749184484225,2.823157894736842,0.0,15.85390342159343,1.784410105599169,7.979297801050838,0.000000
4.206806117999999,1,0.5683888576085764,1.0,0,0,54.95161264292622,18.906675370336135,1.408115589075295,0.05491256409257453,1.4091859004021032,2.823157894736842,0.0,17.081455871970114,2.233243292738295,9.620483987242341,0.000000
4.248917881000001,1,0.5644789794777819,1.0,0,0,55.0134031652543,18.909305360438225,1.52645016233733,0.07042885973483202,1.5280740565768434,2.823157894736842,0.0,17.194241582617718,2.6416955692840727,10.505314191693403,0.000000
4.301121223000001,1,0.5604357595878782,1.0,0,0,55.09691191083593,18.913560315457683,1.672860534545398,0.09315661211176358,1.6754523336757916,2.823157894736842,0.0,16.042094617967425,3.1873390439164786,10.70329027617512,0.000000
4.353034695,1,0.5562112352847413,1.0,0,0,55.187528153867056,18.919050420512963,1.818110792484232,0.11917142742859764,1.8220122619957888,2.823157894736842,0.0,16.0341173265857,3.7501929911112892,11.633457177328719,0.000000
4.405405663,1,0.5525787460613099,1.0,0,0,55.28657110751467,18.926073429906012,1.9641596163444892,0.14980083008266218,1.9698637737599993,2.823157894736842,0.0,14.88730608869872,4.361341957445289,11.634456448516277,0.000000
4.455849633,1,0.5480615169810522,1.0,0,0,55.388267942303095,18.94348180908632,2.104340369303293,0.1829140896007029,2.1122750659073675,2.823157894736842,0.0,16.032252507606486,4.967794263080545,12.430647517262964,8.288278
4.5080839390000005,1,0.5439626992022633,1.0,0,0,55.49920183027413,18.970530146335793,2.248785837859415,0.22223985811999875,2.2597407592673697,2.823157894736842,0.0,14.99632166800057,5.64402020842712,13.36840091472378,8.392795
4.558855238,1,0.5398898169150639,1.0,0,0,55.613858048009,18.999939787429327,2.388356754382516,0.2655692193480305,2.4030761528652618,2.823157894736842,0.0,16.055108514913165,6.344842173748008,14.266821862037867,8.407182
4.602063699,1,0.5343174756734534,1.0,0,0,55.71668530008973,19.02754494714835,2.506375958218639,0.3066103162585165,2.5250604606568428,2.823157894736842,0.0,15.95621668043229,6.974461376643624,14.917668345558713,8.352040
4.653664214000001,1,0.526696165509204,1.0,0,0,55.84573262398196,19.063831262079507,2.6462434698846238,0.3608751638447346,2.670736861951581,2.823157894736842,0.0,14.873484573033128,7.765671530576313,15.712182120018273,8.299231
4.705326907,1,0.5190076258584093,1.0,0,0,55.981817614073805,19.103484259467656,2.7850844358933307,0.4200918494877825,2.8165888015578946,2.823157894736842,0.0,14.873484573033128,8.577622276786613,15.993374432975873,7.992454
4.756688809,1,0.5122809879883595,1.0,0,0,56.12389239001232,19.14630830801992,2.921830663415662,0.48366325744521893,2.9615915606778946,2.823157894736842,0.0,13.818045413765697,9.399185536667352,16.21806475682975,7.689512
4.8077099190000006,1,0.5040681982482004,1.0,0,0,56.27151562368373,19.19281953004256,3.056115363765447,0.552367910199848,3.1056322101726335,2.823157894736842,0.0,14.853504269228369,10.245138700282283,16.986681025987373,7.662158
4.859119724999999,1,0.2927358262848052,1.0,0,0,56.42713614392864,19.24259913986047,3.190279688789667,0.6241974563662063,3.2507702098484192,2.823157894736842,0.0,9.699508148028746,11.070415332789613,13.95774350583124,5.991115
4.902251377000001,1,0.2749233257973438,1.0,0,0,56.56418250756924,19.282849050199445,3.303824764570788,0.6773125464437375,3.3725376737052652,2.823157894736842,0.0,7.590103430504005,11.585600040881998,10.772796406102511,4.447705
4.952984782,1,0.2564070491666137,1.0,0,0,56.7322904829608,19.330509028059744,3.437830647613033,0.7361600462692653,3.5157660865578944,2.823157894736842,0.0,6.646342306830506,12.08650351709171,9.621611510876727,3.802606
5.007185584,1,0.23849651638851974,1.0,0,0,56.919327514816615,19.38460741986465,3.5801920115978403,0.8013723187456058,3.6687835086252636,2.823157894736842,0.0,7.618275080138595,12.616835055582637,9.97013360125221,3.765955
5.062363282,1,0.22855447400460746,1.0,0,0,57.11756207598557,19.443271118952975,3.724205800797239,0.8703686832991997,3.8245588623473674,2.823157894736842,0.0,6.537046305085892,13.154262243068972,9.589369393148074,3.461697
5.103617235,1,0.22006598211448777,1.0,0,0,57.27105839884432,19.48906054091718,3.831595104699996,0.9222576940220251,3.94102528544842,2.823157894736842,0.0,6.438681148901909,13.533547507360247,9.053049472904286,3.162818
5.155228575000001,1,0.21147220690637403,1.0,0,0,57.46927621092282,19.54927220028431,3.965256816533654,0.9889989085414391,4.086732247427371,2.823157894736842,0.0,5.525582219027137,14.00475232339952,9.277666543034968,3.116690
5.20608313,1,0.2031740519664578,1.0,0,0,57.67110926575987,19.61241283303356,4.095796831784528,1.0582575899700608,4.230302685858947,2.823157894736842,0.0,6.507251335526282,14.487051285102817,9.688726359791538,3.134207
5.260410459000001,1,0.19788781582132192,1.0,0,0,57.89377870664428,19.68430115561025,4.233821552192672,1.1363898337197809,4.383677313625267,2.823157894736842,0.0,5.54521331504543,15.024501995121787,10.067511910701482,3.130104
5.304553083,1,0.1917553507163687,1.0,0,0,58.08019989796033,19.745653691512175,4.345301163632707,1.2012979933573935,4.508298911065265,2.823157894736842,0.0,5.54521331504543,15.453944044895326,9.606491797255872,2.892741
5.357016195,1,0.003528999352299411,1.0,0,0,58.308908953423376,19.819708474875565,4.479205491538593,1.2723511570437334,4.656410559890528,2.823157894736842,0.0,0.6179637059019918,15.857586045663588,4.607504511788542,1.309276
5.410869619,1,-0.012258721313117987,1.0,0,0,58.553466603770524,19.891410143577172,4.623514826238706,1.3207103719646838,4.808447279014737,2.823157894736842,0.0,-0.43044791604162236,15.942029045884938,-0.12676012859097646,-0.052167
5.465177248,1,-0.025214717690222405,1.0,0,0,58.80900245113279,19.96271480133539,4.772410991235637,1.3576516684979558,4.961766290570527,2.823157894736842,0.0,-1.506321198749919,15.879950233570284,-1.7193952890554032,-0.471486
5.519923791,1,-0.037971237908793795,1.0,0,0,59.07504381349173,20.035696930548934,4.923515566940576,1.391319550140089,5.116324425650528,2.823157894736842,0.0,-0.4406563259326507,15.779581228869507,-1.8424316979040314,-0.480868
5.572236616,1,-0.04197202977390955,1.0,0,0,59.33696845392279,20.107212173256237,5.067977649795819,1.423173451189142,5.264011790545265,2.823157894736842,0.0,-1.45278514616091,15.685636064590463,-1.8450359567833563,-0.466634
5.616302038000001,1,-0.042045326300480045,1.0,0,0,59.563492607692346,20.168626781097096,5.189874427340128,1.4492150715929033,5.388415434549478,2.823157894736842,0.0,-1.477208764990841,15.601803467656477,-1.9747206826256327,-0.486392
5.669641695000001,1,-0.041224682120576596,1.0,0,0,59.84491235028647,20.24436121496988,5.337687642572709,1.4797400295339866,5.539001708311584,2.823157894736842,0.0,-0.5901076045707495,15.49469947148543,-2.0716795824749603,-0.493435
5.723010931999999,1,-0.15905349430572188,1.0,0,0,60.13495834277402,20.319516545429405,5.488126904658249,1.5009412895988594,5.68967149108421,2.823157894736842,0.0,-5.353984407534332,15.295722916376102,-6.965086575048967,-1.650587
5.7756893,1,-0.161751082657339,1.0,0,0,60.43081882194499,20.38778715707586,5.644129934066091,1.4935209762456585,5.838390841585263,2.823157894736842,0.0,-4.421980436769693,14.821609233336412,-10.158707027148349,-2.289964
5.81780129,1,-0.1654641367282847,1.0,0,0,60.673531561894215,20.440488973498976,5.770748084461388,1.479069720589278,5.957279638616843,2.823157894736842,0.0,-4.501007239663172,14.375718342482458,-10.895750605374724,-2.382767
5.871279608,1,-0.16742219051995208,1.0,0,0,60.98947455347583,20.50578985940473,5.932474195382759,1.4548395346265026,6.10825737427579,2.823157894736842,0.0,-5.353498656723261,13.77890390351127,-11.327504246434804,-2.396800
5.924771455,1,-0.1624868129859969,1.0,0,0,61.31406849091965,20.569460302774406,6.094673637450698,1.4259928304912202,6.259273304437895,2.823157894736842,0.0,-4.458365455207501,13.168808685491165,-11.514744644786896,-2.362189
5.979217735000001,1,-0.15711663780235874,1.0,0,0,61.65313404156285,20.633054832215755,6.25942154740118,1.3949919230302268,6.412983749658949,2.823157894736842,0.0,-4.458365455207501,12.563775668486974,-10.931810692733848,-2.170393
6.021821940000001,1,-0.1499243120266032,1.0,0,0,61.92447688882392,20.68233766809436,6.387661006590028,1.371605318936092,6.533262147353686,2.823157894736842,0.0,-4.455743512236125,12.118946118466516,-10.19303631543602,-1.973068
6.075935159000002,1,-0.22908203695503052,1.0,0,0,62.277361051442625,20.740563266099947,6.5532240531768915,1.32600246717574,6.6860323087831635,2.823157894736842,0.0,-7.225638297335151,11.438983900628442,-15.14604832105701,-2.904728
6.1181516590000005,1,-0.22412766222236674,1.0,0,0,62.55927356089546,20.780838400947697,6.685289441177989,1.271955970530046,6.805216154046317,2.823157894736842,0.0,-6.326248653133961,10.772450145543237,-16.05054431407753,-2.976806
6.171685801000001,1,-0.22154344289631242,1.0,0,0,62.92458314063433,20.828095144343397,6.852731237875473,1.1962025870652924,6.9563514896715795,2.823157894736842,0.0,-6.326248653133961,9.901700075778553,-16.461222891155902,-2.955623
6.226411669999999,1,-0.21610303089213795,1.0,0,0,63.30693127159624,20.8724954220164,7.022867607651905,1.1151395383365792,7.11085125878526,2.823157894736842,0.0,-6.272768577467245,9.022494828789345,-16.126193197205364,-2.808681
6.279764624,1,-0.20895156116833316,1.0,0,0,63.6883376363237,20.911545591628787,7.187810391557459,1.0316985981512583,7.261475072077895,2.823157894736842,0.0,-5.393491562805255,8.16813090634466,-15.97517453308773,-2.702464
6.322359064999999,1,-0.21809177263078267,1.0,0,0,63.99896480633268,20.939212626149555,7.319014243310093,0.9601603172305062,7.381725904458943,2.823157894736842,0.0,-6.230474562497324,7.473787895840229,-16.759616076744123,-2.785559
6.3743117730000005,1,-0.2065015339035432,1.0,0,0,64.38516408516479,20.968497200841508,7.478292435463246,0.8671203202217247,7.528396602202107,2.823157894736842,0.0,-5.438072193039974,6.61400421040385,-16.490626829321567,-2.657291
6.429274559000001,1,-0.19566390871086473,1.0,0,0,64.80242276137548,20.99406991325223,7.645594954483614,0.7629235644397024,7.683565225414741,2.823157894736842,0.0,-6.331374487715168,5.698454661866132,-16.859942549792052,-2.646399
6.4825568140000005,1,-0.1870150462520841,1.0,0,0,65.21535243334272,21.01386132195542,7.806172690489508,0.6595896748345732,7.83398944426737,2.823157894736842,0.0,-5.556387438540015,4.829786720232224,-15.67281911023133,-2.374556
6.526824873000001,0,0.0,0.0,0.0,0,65.5618544605167,21.0281211867314,7.81309102752614,0.5718384461393919,7.83398944426737,0.0,0.0,-2.0482020860423176,4.1860019369012065,-12.022651775276833,-1.682679
6.581386606000001,0,0.0,0.0,0.0,0,65.98867804665802,21.050866293288106,7.816811057496944,0.5185127812176775,7.83398944426737,0.0,0.0,0.5266785065595683,3.795043162071923,-3.0128285962798667,-0.267559
6.63691204,0,0.0,0.0,0.0,0,66.42277398811103,21.07867003042419,7.817504132423848,0.5079564473738201,7.83398944426737,0.0,0.0,-0.3494475364271895,3.7176706290095463,-0.43578341921243274,0.012221
6.679698642,0,0.0,0.0,0.0,0,66.75724872514263,21.100552394343506,7.817559233304936,0.5071077268799153,7.83398944426737,0.0,0.0,-0.36441444260333533,3.711450238199257,-0.0011657929860840572,0.030334
6.7329953410000005,0,0.0,0.0,0.0,0,67.17389070785902,21.12770422934467,7.817556585287122,0.507148547002292,7.83398944426737,0.0,0.0,0.3579158219740893,3.711749413563037,-0.015904417662213923,0.004205
6.776233053,0,0.0,0.0,0.0,0,67.51191041847193,21.149532235207307,7.817600347784445,0.5064735088956749,7.83398944426737,0.0,0.0,0.28774396657463625,3.706801994786085,-0.19383323249948706,-0.029475
6.828040398000001,0,0.0,0.0,0.0,0,67.91694681824286,21.175346325303764,7.817753411994531,0.5041053482561553,7.83398944426737,0.0,0.0,-0.5649771667659408,3.6894457378186294,-0.44577470536612046,-0.069497
6.879084241999999,0,0.0,0.0,0.0,0,68.31603227145727,21.200493015396574,7.81796557186643,0.5008042831324256,7.83398944426737,0.0,0.0,0.25554942705633443,3.6652527861708513,-0.4657322189221164,-0.068573
6.932513501000001,0,0.0,0.0,0.0,0,68.73378121874677,21.226604959106954,7.818202463261861,0.4970924022138735,7.83398944426737,0.0,0.0,-0.624216745663256,3.638049815952658,-0.592849955782299,-0.089319
6.983737962000001,0,0.0,0.0,0.0,0,69.13431365363536,21.251281555309927,7.818487293372006,0.49259218048305864,7.83398944426737,0.0,0.0,0.2127373868026381,3.6050704950167223,-0.6412197855394423,-0.093963
7.045084427000001,0,0.0,0.0,0.0,0,69.61401183267844,21.2805053267765,7.818839959745792,0.48696231555942243,7.83398944426737,0.0,0.0,0.17378230067757308,3.563814405635879,-0.6940054902992326,-0.101367
7.075246432000002,0,0.0,0.0,1.0,0,69.84564050011464,21.29450045076561,7.538553938883806,0.4667675610937904,7.552990629250773,-9.316317499999998,0.0,-0.6201196616456721,3.543081790567171,-0.7264356137891073,-0.099857
7.127553377,0,0.0,0.0,1.0,0,70.22728841686175,21.31731169014418,7.052479328347088,0.43174625350651336,7.065682522175753,-9.316317499999998,0.0,0.1243961954717847,3.503222498170711,-0.8286529705582918,-0.114275
7.180054045,0,0.0,0.0,1.0,0,70.58478602635485,21.338308045992523,6.564592856987829,0.3967224746286971,6.576569630125659,-9.316317499999998,0.0,-0.6910272648000412,3.4583883647538625,-0.8458618165251549,-0.120833
7.232596860999999,0,0.0,0.0,1.0,0,70.91691496673278,21.357646763904583,6.076228542881139,0.36303682285981165,6.087064073925589,-9.316317499999998,0.0,0.3069273321136097,3.419190031685571,-0.5508648752311187,-0.069633
7.285864012999999,0,0.0,0.0,1.0,0,71.22741039597793,21.375763950019323,5.5810082640625325,0.3309190077878012,5.590810373572828,-9.316317499999998,0.0,-0.6394436024453302,3.3933096874015827,-0.508156209181864,-0.084394
7.329221726000002,0,0.0,0.0,0.0,0,71.46941088245364,21.389757632635614,5.581108204407777,0.3292291662987049,5.590810373572828,0.0,0.0,-0.5618444599152181,3.3759615823347477,-0.3296695466422562,-0.067751
7.383052445999999,0,0.0,0.0,0.0,0,71.76986577390414,21.40714083506303,5.581190756130023,0.32782674835700754,5.590810373572828,0.0,0.0,0.37508415326727146,3.361564435468504,-0.20578479237554387,-0.044521
7.437548949000002,0,0.0,0.0,0.0,0,72.07403954365367,21.424690067052907,5.581264430344948,0.32657004120989397,5.590810373572828,0.0,0.0,-0.676868191005317,3.348663328300511,-0.3352640245522741,-0.078633
7.479068757999999,1,-0.022826842867237133,0.6818181818181703,0,0,72.30748026852913,21.437434648498805,5.661257234607769,0.3276538493117439,5.67073103941349,1.924880382775087,0.0,-0.676868191005317,3.312384953171759,-1.2087655141495819,-0.284080
7.533289780999999,1,-0.02351668635143911,0.6727272727272728,0,0,72.6173299668405,21.453473951028872,5.7644877988266385,0.32617407405143783,5.7737084364734335,1.899215311004785,0.0,-0.676868191005317,3.238534276420437,-1.4499073912682645,-0.327375
7.587166137999999,1,-0.024350406232042637,0.6545454545454753,0,0,72.93068511386349,21.469174624685717,5.8643431705463,0.3236198938729893,5.873265757450738,1.8478851674641734,0.0,-0.676868191005317,3.1586259118373246,-1.5068493655326909,-0.331452
7.639540126000002,1,-0.02425665973343079,0.6363636363636443,0,0,73.24038854913738,21.484254179783974,5.958744711307486,0.32051370797356354,5.96735850871505,1.7965550239234676,0.0,-0.676868191005317,3.0789039939377973,-1.53590903386624,-0.330809
7.682789503,1,-0.023472096869921643,0.6272727272727147,0,0,73.49983771579393,21.496558253971745,6.035598827916147,0.31758306083998583,6.043948395881228,1.7708899521530743,0.0,-0.676868191005317,3.012029828871332,-1.5563083627720784,-0.329806
7.7370430290000005,1,-0.02258536564587202,0.6090909090908908,0,0,73.8299231176096,21.51178020365468,6.129234391183176,0.31338107531580905,6.137240578666335,1.7195598086123887,0.0,-0.676868191005317,2.9269220599071484,-1.5807991372361956,-0.328476
7.789935697999999,1,0.14582006887694632,0.5909090909090968,0,0,74.15639761382725,21.52923999950643,6.217192195830713,0.32108218628771956,6.225477698156956,1.668229665071787,0.0,3.9091636425153276,2.9563707033597715,4.128341339579841,0.913072
7.842091522999999,0,0.0,0.0,0.0,0,74.4802655313043,21.552384048340993,6.215737851694469,0.34810275675762375,6.225477698156956,0.0,0.0,-0.602599416151385,3.2054129169953143,2.710668282101906,0.508594
7.882662164000001,0,0.0,0.0,0.0,0,74.73237787068281,21.567600741520224,6.215417152727487,0.3537826844696651,6.225477698156956,0.0,0.0,-0.5757942321923277,3.2577710225899774,0.3903128570776802,0.039791
7.933478307,0,0.0,0.0,0.0,0,75.04822845765646,21.585453420103136,6.215418467568674,0.35375958397746815,6.225477698156956,0.0,0.0,0.30295398369936055,3.257558074603536,-0.20124871647110887,-0.052340
7.986601217999999,0,0.0,0.0,0.0,0,75.37842978249071,21.603887569299662,6.215499837254084,0.3523270403248685,6.225477698156956,0.0,0.0,-0.5999787335752192,3.2443525007454843,-0.3048029697045444,-0.064468
8.037973849000002,0,0.0,0.0,0.0,0,75.69776314567277,21.62150843271932,6.2156167670514995,0.3502581553624424,6.225477698156956,0.0,0.0,0.3324369438322553,3.225281265340999,-0.36191739597741,-0.072502
8.088804935,0,0.0,0.0,0.0,0,76.01372978875466,21.638952074818945,6.215707595323352,0.3486425959191211,6.225477698156956,0.0,0.0,-0.5613859711149637,3.2103890890232676,-0.2865955293211264,-0.057104
8.142128958999999,1,0.38921937433488885,0.500000000000004,0,0,76.34706685737417,21.65946962301606,6.290412647377147,0.3607544330390743,6.300748767824323,1.4115789473684324,0.0,4.042378678459011,3.2823109189247814,4.685420068207148,1.007810
8.193033233,1,0.40570039971839517,0.4909090909090811,0,0,76.66812157264674,21.690036737906187,6.3575946976622895,0.41764115901132975,6.371297707488169,1.3859138755980585,0.0,8.420488580586902,3.758456552100332,14.322783383724145,2.949115
8.244079419,1,0.4231339311572616,0.4727272727272894,0,0,76.99171387999164,21.736635188149013,6.417210182042175,0.5344001853058994,6.439423116907348,1.3345837320574634,0.0,12.794835949006782,4.760384605267831,25.010123960114687,5.009228
8.285029658000001,1,0.4402693872018976,0.4545454545454478,0,0,77.25182714013502,21.786027037733888,6.45772629118657,0.6659430463994491,6.491972658054717,1.2832535885167273,0.0,12.843700739841736,5.887726692223833,29.243975578705385,5.709076
8.337175686,1,0.44960626749281585,0.44545454545453633,0,0,77.58383917672357,21.86032795070907,6.5015844893351495,0.854911099117201,6.557550904061452,1.2575885167463858,0.0,12.843700739841736,7.491001809024272,31.68288662568172,6.049639
8.389025394999999,1,0.4495927654654777,0.445454545454532,0,0,77.91479650393671,21.945274739579613,6.538393414733352,1.0537149748296413,6.622756502696493,1.2575885167463734,0.0,12.843700739841736,9.154962455034726,32.395410067949946,6.082381
8.439858033000002,1,0.4438622434821775,0.4454545454545521,0,0,78.24004801134889,22.038207583951962,6.568561366811984,1.2512920156033556,6.686683044521224,1.2575885167464302,0.0,12.01110091843789,10.785454990709681,31.932430822696155,5.905179
8.490842473999999,1,0.5204400845071502,0.44545454545455254,0,0,78.56618055332507,22.142891771231902,6.59100891395636,1.460105742638305,6.750800492055557,1.2575885167464316,0.0,14.60943013037849,12.491003352199906,36.106376217972965,6.659259
8.542718951,1,0.5067923024346835,0.4454545454545493,0,0,78.89637700656853,22.264506846396994,6.601496849588211,1.6966547293223124,6.816039753820018,1.2575885167464225,0.0,14.60943013037849,14.413665623107752,37.70110260918409,6.828246
8.594325438,1,0.493773314211379,0.4545454545454529,0,0,79.22381982416037,22.39756883402794,6.603986322590649,1.9372459610711452,6.882263963453512,1.2832535885167418,0.0,13.766400559800266,16.34878378741433,37.43862108340968,6.671105
8.645107018,1,0.4797149066721817,0.4636363636363685,0,0,79.54504689088853,22.539455174207475,6.600096637334486,2.173387583203851,6.948732921114372,1.308918660287095,0.0,13.766400559800266,18.226524256482463,36.76290722230087,6.460428
8.686892721000001,1,0.4619334811398745,0.47272727272728565,0,0,79.80854336033453,22.664160495145246,6.592759909110291,2.366121128299258,7.0044994405707595,1.3345837320574527,0.0,13.798764328263129,19.742905319158663,36.074070871780464,6.270249
8.740154867,1,0.4440358128185672,0.48181818181819747,0,0,80.14339805033975,22.832961170541477,6.579236977815366,2.6070770844387363,7.076949210956559,1.3602488038277953,0.0,12.860988367986122,21.616356581440307,34.28631213742782,5.864164
8.794517399000002,1,0.4273519215348782,0.4909090909090854,0,0,80.48382097541493,23.016512274870216,6.5607568707770145,2.8481109191687404,7.152290998368006,1.3859138755980707,0.0,11.880795214341598,23.466299383882774,33.86782103525238,5.726456
8.838110407,1,0.41467365138904205,0.49999999999999933,0,0,80.75554498459232,23.172118359653574,6.542198976866266,3.039558797395962,7.213825970713267,1.4115789473684193,0.0,11.880795214341598,24.919963826555072,33.046985151489,5.520519
8.892392206999999,1,0.4686403356274395,0.49999999999998124,0,0,81.09084804230375,23.378315345143854,6.5079034942020115,3.286006539400591,7.290449016818525,1.411578947368368,0.0,12.70699981702374,26.790375168260702,35.73182809424925,5.929081
8.945714713,1,0.45122328502363657,0.5181818181818172,0,0,81.4159428475081,23.595208319220447,6.461939444381658,3.5408286656188013,7.36845499559598,1.462909090909088,0.0,13.455925539984646,28.720599081729198,36.51382640142874,5.957363
8.998119149999999,1,0.43805657562912503,0.5272727272727158,0,0,81.73177323123709,23.820878104446184,6.407937484754942,3.7931710628247357,7.446462886523939,1.4885741626793934,0.0,12.621025150059,30.62336146886847,36.05897288731633,5.781334
9.048519898,1,0.42074918828114294,0.5363636363636436,0,0,82.03234029049685,24.04881065532442,6.350678193832769,4.0325092228081285,7.522781676591157,1.5142392344497813,0.0,11.818766041535566,32.41444511048295,35.25392584221813,5.567366
9.090789992,1,0.40214212817081046,0.5454545454545594,0,0,82.28220691337394,24.247699930464282,6.300619810157546,4.228240227182573,7.587873576366086,1.539904306220135,0.0,11.922143087883573,33.86489895409015,33.788807666822414,5.260319
9.145630631000001,1,0.3841917232790604,0.5636363636363728,0,0,82.60323134335486,24.516194087890707,6.234079097123746,4.477052540154261,7.675137890389784,1.5912344497607915,0.0,11.033559700450704,35.68431242744693,32.65129149298779,5.007771
9.199786328,1,0.3931178283985962,0.5727272727272528,0,0,82.91559439287778,24.793966128680495,6.160209035784667,4.723491320139977,7.762702210957262,1.6168995215310442,0.0,11.83754735435035,37.48007126447734,33.54165956778885,5.092110
9.241398497,1,0.3761847461111943,0.5818181818181736,0,0,83.15225845229132,25.015893147339245,6.09804034874763,4.913175471601993,7.8310528864071385,1.6425645933014121,0.0,10.197220528788753,38.858303972820984,32.447751954052556,4.838998
9.292547028,1,0.35549853474678034,0.5999999999999911,0,0,83.44029382210434,25.29739948732018,6.0229500479957245,5.139449091556151,7.917693113865241,1.69389473684208,0.0,10.197220528788753,40.47448867786627,31.107133852127053,4.565812
9.345559047,1,0.33514452694851743,0.6090909090909122,0,0,83.7350498505127,25.59959156704924,5.943574464908262,5.368017150526998,8.00885045111104,1.719559808612449,0.0,9.355957368749735,42.08718355242293,30.003074290166282,4.334453
9.397880756000001,1,0.3196504768667904,0.6272727272727016,0,0,84.02264738906999,25.90766728721722,5.867302880644338,5.586516222284986,8.101506439858618,1.7708899521530375,0.0,8.560470243078042,43.59569382854425,28.101301992280312,3.982254
9.449257767,1,0.3027001295415506,0.636363636363614,0,0,84.30138477345848,26.2199574496441,5.7908864394891575,5.7969064927049745,8.193808067084834,1.7965550239233818,0.0,9.354814424999342,45.02976611790506,27.861452483256386,3.904762
9.500213591,1,0.30487014769521414,0.6545454545454433,0,0,84.57337080056752,26.539877458933255,5.710025290592932,6.007165249780407,8.287968578450343,1.847885167464083,0.0,8.556311242078767,46.45267053563003,27.99488450593249,3.869345
9.551707185,1,0.2856420953333136,0.6636363636363487,0,0,84.84441834664665,26.872732823796767,5.627104380991128,6.215674091654743,8.384444413808083,1.8735502392344077,0.0,7.767388692188732,47.84518005190043,26.447986394593762,3.571414
9.603332083,1,0.26786072153747714,0.6727272727272852,0,0,85.11271783984103,27.215606524048273,5.545562070425573,6.418675755916088,8.482491210518743,1.8992153110048198,0.0,7.767388692188732,49.173872698889184,25.313488405087384,3.359309
9.645043322000001,1,0.2502925292684549,0.6818181818181919,0,0,85.32687797926839,27.49934220351296,5.480298867141382,6.579326086729814,8.562780356211093,1.924880382775148,0.0,7.817689007691677,50.207140377441206,24.462227897907887,3.200812
9.695847638000002,1,0.23383707737209797,0.6909090909090843,0,0,85.584851402385,27.852740706111764,5.40309792241902,6.770128289946362,8.661876483856185,1.9505454545454357,0.0,7.0186300509623,51.40736393130715,22.730673948572576,2.905832
9.746443671,1,0.21937038835727374,0.6999999999999975,0,0,85.839190466331,28.212741153380847,5.331376641757854,6.953179098409357,8.7618648968606,1.9762105263157825,0.0,6.256899848614637,52.52067556217911,21.367947490482656,2.685088
9.798589848,1,0.21483337811291509,0.7090909090909082,0,0,86.09846259828046,28.59224441355218,5.260728377244539,7.136891176220328,8.866255056130381,2.001875598086122,0.0,6.242072357970081,53.60541777329641,20.74210656517985,2.577232
9.851959829,1,0.1981461914991598,0.709090909090905,0,0,86.36024021704823,28.989842575919358,5.1868861416424945,7.322065839913907,8.9730951187646,2.0018755980861127,0.0,5.407438045931286,54.68658333999212,19.912655500293813,2.423189
9.904132501000001,1,0.1835183075807736,0.7090909090909184,0,0,86.61359028226671,29.386747370112534,5.119021046260557,7.4964875400261946,9.077538317728354,2.001875598086151,0.0,5.342564520828125,55.67255272887449,18.504767255905918,2.201933
9.946635596000002,1,0.17011430218315812,0.7272727272727328,0,0,86.81795972935934,29.716179932344353,5.066539769158587,7.637004795937218,9.164805916419267,2.05320574162681,0.0,5.473134974373044,56.43891897738379,17.781305785249312,2.086425
9.997837491,1,0.15740877355499017,0.7272727272727347,0,0,87.06207377807789,30.120086175669588,5.006553997808129,7.8016724067041805,9.269933941215436,2.0532057416268152,0.0,4.737092576415644,57.31056197878077,16.183438010264677,1.844777
10.048993008000002,1,0.2070401109558982,0.7181818181818312,0,0,87.30203574862786,30.532160119225328,4.938175192879945,7.9674219126688754,9.373653832420475,2.027540669856496,0.0,5.469436843224441,58.20953623615489,18.915814281403087,2.203533
10.099644528,1,0.19987615000858378,0.72727272727272,0,0,87.5337754843869,30.949560792716266,4.8526075235145525,8.14113532142299,9.477651824106594,2.0532057416267735,0.0,6.19098064971003,59.20250879274856,20.12593526734673,2.291185
10.151645632,1,0.19312264071958588,0.7363636363636324,0,0,87.76669467939197,31.38707814654855,4.757287738933663,8.321954096600727,9.58575540147662,2.0788708133971183,0.0,5.4508597859047665,60.24533415659937,19.84921905136787,2.185443
10.204960446,1,0.1866138021014478,0.7272727272727324,0,0,88.00123652046597,31.84441968216543,4.659910061828018,8.5019151790445,9.695221683695184,2.0532057416268086,0.0,5.421838093236557,61.27279891508769,19.120268715232545,2.052547
10.246096865,1,0.21003769402188258,0.7272727272727271,0,0,88.17801298476624,32.203860574057,4.577967512621722,8.642014652063844,9.77968321537595,2.0532057416267935,0.0,5.470557598630902,62.08831765451004,20.387412450627465,2.190143
10.299651283000001,1,0.19922221039701296,0.7363636363636452,0,0,88.4016786129557,32.6807300566383,4.458322588170271,8.829244354111294,9.891015931884622,2.0788708133971543,0.0,6.271724287443736,63.208529557272335,21.370540657363684,2.251911
10.351611174,1,0.18978947489210152,0.7272727272727274,0,0,88.61251146416623,33.15246268150509,4.3362502737908795,9.008381897997573,9.997700278420124,2.053205741626795,0.0,5.527866359185725,64.29582313443952,20.26708844317682,2.049492
10.404023190000002,1,0.18252415855867302,0.7454545454545506,0,0,88.8199953552356,33.63677412494542,4.217760573140074,9.185979827276425,10.108003246906101,2.1045358851674787,0.0,4.6981616078188155,65.33768630019861,19.573967878366762,1.939721
10.447102624000001,1,0.17252791918129767,0.7363636363636489,0,0,88.98613879532546,34.041361609654324,4.119084802269562,9.32863155957273,10.197559824906369,2.0788708133971645,0.0,4.744710830571925,66.17600263222528,19.40349071749917,1.900021
10.500502194000001,1,0.21939588017353434,0.7363636363636366,0,0,89.18477068029091,34.55155387063378,3.9834942944466225,9.50780740706575,10.308570632427326,2.07887081339713,0.0,6.262935421935182,67.26773601122477,21.931343547642072,2.177375
10.554413988999999,1,0.21186003246211524,0.7363636363636251,0,0,89.37548692087988,35.076763540341226,3.8242130048190703,9.693568176151588,10.42064628955067,2.0788708133970975,0.0,5.520979910723409,68.47025238215947,22.562004482132405,2.163758
10.605890574000002,1,0.2069761410681713,0.7454545454545519,0,0,89.54925705564682,35.58719405617513,3.663579792124762,9.871049376383294,10.52898060992905,2.1045358851674822,0.0,6.2499231676630655,69.6378990573717,22.82791450941994,2.133152
10.649870764000001,1,0.20111787688150123,0.7454545454545439,0,0,89.6909401337989,36.03018444070976,3.519958299085043,10.021325942091426,10.621538498020533,2.1045358851674596,0.0,6.237167674970802,70.64633999451927,23.028690927638536,2.111052
10.700518657000002,1,0.210997871192435,0.7454545454545438,0,0,89.84596037714468,36.548131988498696,3.3471100167364036,10.192624893590388,10.728128806347154,2.1045358851674596,0.0,5.57585535915722,71.8205707770633,23.317811400020798,2.095093
10.751370521,1,0.20061798807384762,0.7454545454545416,0,0,89.9924595588503,37.076453463922476,3.165583556764175,10.36240904130331,10.835148378962806,2.1045358851674534,0.0,6.2165494086471975,73.01275764531321,23.56425494945715,2.074615
10.804024729,1,0.19226456119773255,0.7454545454545501,0,0,90.13465248361035,37.63196907008882,2.973516765489163,10.534337251865603,10.945961049203879,2.1045358851674774,0.0,5.4878748963874795,74.23727229887531,22.86083210700061,1.946244
10.847212189999999,1,0.21527084050674714,0.745454545454541,0,0,90.24350322593699,38.0940030269178,2.8100529797702873,10.673128578494635,11.036850610667646,2.1045358851674516,0.0,6.210729427326309,75.24973528084621,24.117956631180174,2.065344
10.898964559000001,1,0.20405093223325488,0.7545454545454627,0,0,90.36369786415214,38.655303512521606,2.6022023337618454,10.839106871626624,11.14709355663525,2.130200956937822,0.0,5.6223034703575285,76.50018489199175,24.26373186919196,2.020792
10.951364993,1,0.1934991503494693,0.7454545454545538,0,0,90.47482084646747,39.23168129874321,2.38769489344927,11.001242694718451,11.2573721503866,2.1045358851674876,0.0,5.6223034703575285,77.75452133179314,23.726386629212385,1.912119
11.003740353,1,0.18547058052724288,0.7454545454545447,0,0,90.57570201716274,39.81551647808768,2.175478800714645,11.15748966878225,11.367597975005161,2.104535885167462,0.0,4.938613249233638,78.96693716235204,22.737288850024985,1.774020
11.056274003,1,0.21633025145509407,0.7545454545454658,0,0,90.66523276037344,40.40890472177237,1.9542559366984111,11.311937213408282,11.4795052065066,2.130200956937831,0.0,6.282664555292395,80.19830267418573,24.61931684725612,1.959078
11.106996383,1,0.20585380979177464,0.7545454545454653,0,0,90.73874729165517,40.989263760125596,1.7204287013220394,11.459124503374136,11.587554068920765,2.1302009569378293,0.0,5.643234151495623,81.46160603344553,25.125966999348563,1.939635
11.157661420000002,1,0.1974707749932335,0.7545454545454561,0,0,90.80070129610596,41.5758088597796,1.4820505118487999,11.601198081985638,11.695480779221457,2.1302009569378035,0.0,5.643234151495623,82.7199095375851,24.642721556498955,1.831527
11.199153774000001,1,0.18419922905568603,0.754545454545454,0,0,90.84322244540024,42.06105123975058,1.2882666209565863,11.71323653742439,11.783867831417858,2.1302009569377973,0.0,5.6813004716780595,83.72361688490884,23.872046298356498,1.722037
11.251316382,1,0.17028574465238067,0.7545454545454526,0,0,90.8867555627672,42.67708299500941,1.0520390262646406,11.848370105650943,11.894984668895829,2.1302009569377938,0.0,5.038615806203446,84.92590696031772,22.14622564461203,1.524728
11.303824772,1,0.1569479600951717,0.7545454545454621,0,0,90.92024063890494,43.303704737245425,0.8276641069607508,11.978277550718666,12.006838091521093,2.1302009569378204,0.0,4.423043318352674,86.04731103194288,20.635464582491295,1.379045
11.356431792,1,0.14709271915841604,0.7545454545454431,0,0,90.9437477388846,43.937854033553705,0.6153744479609172,12.10326776799779,12.118901615866736,2.1302009569377667,0.0,3.8390619931471135,87.08937912202634,19.225734484521194,1.253180
11.399659144,1,0.16973916560641644,0.7545454545454504,0,0,90.95473797777181,44.46359099633452,0.4402632808426051,12.203045203073367,12.210984562463022,2.1302009569377875,0.0,5.143066769930755,87.93377051995004,20.177928303777882,1.363135
11.453450543,1,0.16002385775361538,0.7454545454545493,0,0,90.95651167405222,45.12346999733697,0.20857266618922496,12.32242544003935,12.324190491971887,2.1045358851674747,0.0,4.4974735462445015,89.03028892341428,20.380739274668837,1.341293
11.507665415,1,0.15311506210801532,0.7545454545454627,0,0,90.94655068640202,45.79467300225792,-0.02377411116141172,12.439656346201835,12.439679064186548,2.130200956937822,0.0,4.4411164514491315,90.10950098096657,19.73485676292732,1.249882
11.558977517,1,0.17578831370921316,0.7454545454545614,0,0,90.92448763553284,46.43535732568532,-0.2568656153808888,12.545037776930766,12.547667224188926,2.104535885167509,0.0,5.076239845313202,91.17299443185293,21.678961693798346,1.411215
11.602013382,1,0.16755781963174782,0.7363636363636411,0,0,90.89583699430833,46.976518830084466,-0.4652725007342187,12.628565148856534,12.637133227866727,2.0788708133971427,0.0,5.0370435693495335,92.10998622736965,21.852826951934077,1.369330
11.654050613,1,0.16114754798115485,0.7272727272727375,0,0,90.84939098860112,47.635254406528,-0.7230581992730855,12.723447667303649,12.743976369334288,2.0532057416268232,0.0,4.478492368228151,93.25255173416474,22.061469187193318,1.336986
11.704740449,1,0.19435801187454604,0.7090909090909105,0,0,90.79033978362854,48.281107353612676,-0.988715785692714,12.807343809134794,12.845451115093674,2.0018755980861287,0.0,5.6353025276234145,94.41442859745379,24.138567045989568,1.489558
11.758308924,1,0.18818523313486124,0.7090909090908943,0,0,90.71157182199197,48.96757214146589,-1.2925166968222745,12.888038677450664,12.952688538022855,2.001875598086083,0.0,5.019519584534336,95.72693520445335,24.76101260696063,1.458347
11.809896493000002,1,0.18184486751782517,0.7000000000000176,0,0,90.62040977039514,49.63216288879407,-1.594020152500365,12.956953044641416,13.054636434907705,1.9762105263158392,0.0,5.589353632937806,97.01353195883836,25.10253619407548,1.424967
11.862679180999999,1,0.1763702174782863,0.6999999999999817,0,0,90.51152022704306,50.31533829482894,-1.9063551905760934,13.020125704630297,13.158946138540541,1.976210526315738,0.0,5.031848499866068,98.32983338110246,24.684241516507694,1.334469
11.904475370000002,1,0.22899440466779875,0.6818181818181945,0,0,90.41317228170256,50.85816414131813,-2.162421933723364,13.061608325191084,13.239398802821409,1.9248803827751555,0.0,6.199452152406529,99.40037016020061,27.122432765706527,1.538719
11.959050892999999,1,0.22386481962210691,0.6909090909090999,0,0,90.26488942903251,51.56827299179338,-2.538094176565644,13.102282725723814,13.345850841138496,1.95054545454548,0.0,6.767614450844151,100.96320266976427,29.804677635697672,1.668176
12.009883158,1,0.2211523017175858,0.6818181818181613,0,0,90.10707918969428,52.2305982549334,-2.9125244123316074,13.124411876455575,13.443696870849019,1.9248803827750618,0.0,6.213459257012307,102.51211794155822,30.990419206649197,1.657721
12.062469237,1,0.23815409202527946,0.6818181818181618,0,0,89.92331926832662,52.91597788199971,-3.31757240609211,13.13234701646676,13.54491878272318,1.9248803827750631,0.0,6.808028677553949,104.17776438702462,32.39264798682028,1.684265
12.113468463999999,1,0.22929295894942928,0.6818181818181804,0,0,89.72474698376155,53.580192571626895,-3.721988057938065,13.125570684812063,13.643086194312172,1.9248803827751158,0.0,6.241346954320648,105.83162420138966,32.44441657680552,1.598966
12.164402626,1,0.2212272443778534,0.672727272727273,0,0,89.50710984508986,54.24270314372055,-4.123659986222385,13.106414960995714,13.739821134635774,1.8992153110047854,0.0,6.241346954320648,107.46509431447572,31.799241589658312,1.485674
12.204967658,1,0.2546398046074957,0.672727272727278,0,0,89.31907977064218,54.769027808437215,-4.449155711727625,13.080929358009852,13.816862864501573,1.8992153110047993,0.0,7.311196676723594,108.78447093048712,33.62174168509682,1.622593
12.265969069999999,1,0.2446729409712044,0.6727272727272713,0,0,89.00944816337821,55.55668925123909,-4.965674553375323,13.017783919897422,13.932717680164883,1.8992153110047807,0.0,7.284207685440605,110.87950911439464,34.89761046453476,1.627133
12.317352645000001,1,0.2372259417652246,0.672727272727293,0,0,88.72456048459986,56.21618064368815,-5.408363010214006,12.946007117398171,14.030306152539053,1.899215311004842,0.0,6.763665967351,112.67336808050203,34.800222231649585,1.538060
12.360574483999999,1,0.28562419689402446,0.6727272727272503,0,0,88.46713912490875,56.767179815214064,-5.7894635186238785,12.870189158809243,14.112393730937631,1.8992153110047214,0.0,7.844020925689124,114.21989036669108,37.31392855941836,1.711081
12.413293268999999,1,0.2747545321958299,0.6727272727272623,0,0,88.12870331330697,57.43265311746944,-6.283629254342421,12.748006622446475,14.212518054587198,1.8992153110047552,0.0,7.844020925689124,116.23918242607016,39.09167238741444,1.736181
12.455682275,1,0.2676566584537471,0.6636363636363708,0,0,87.8379890075666,57.96222308117611,-6.687866314341049,12.630592955823744,14.29193598691941,1.87355023923447,0.0,7.886843418492213,117.9011039526314,39.33730521269895,1.661526
12.507747305,1,0.26342596331001106,0.6727272727272832,0,0,87.45844829977908,58.605208976467296,-7.185246504435874,12.468676562169168,14.39081868906334,1.8992153110048142,0.0,7.30980687737471,119.9532889701534,39.44605740262432,1.587813
12.558454375000002,1,0.2648195303708086,0.6727272727272957,0,0,87.06489953462984,59.22256024295681,-7.667626970081693,12.291631711563415,14.487122332783537,1.8992153110048495,0.0,7.804593418914124,121.95627420196604,39.57492923409511,1.538496
12.613660050000002,1,0.25312939984966215,0.6727272727272671,0,0,86.60990112084254,59.88375556723548,-8.186507071047044,12.079183933652617,14.59196979599789,1.8992153110047687,0.0,7.261494298380006,124.12693696123654,38.989561975088826,1.435807
12.66630321,1,0.24038395453540493,0.6727272727272816,0,0,86.15124125170829,60.503196126708644,-8.66678908787794,11.863396484591604,14.691950491489566,1.8992153110048098,0.0,6.788770909532584,126.14994840735889,38.03973460200529,1.332834
12.717040582000001,1,0.24727411402729,0.6727272727272583,0,0,85.6864629394119,61.08907022567214,-9.119070950849931,11.642023341882524,14.788311685232111,1.8992153110047438,0.0,7.267618894325856,128.07121415592002,37.761282521331786,1.296837
12.768568341,1,0.22970770779170582,0.6727272727272685,0,0,85.19224914182969,61.67234741848476,-9.566079132221393,11.405626077410453,14.886173994066674,1.8992153110047727,0.0,6.727423121941476,129.9870931598202,36.45115371040302,1.172598
12.809446405000001,1,0.21545236242536173,0.6636363636363658,0,0,84.78518506927924,62.12675115927136,-9.905755836715482,11.214286471220595,14.962761100653317,1.8735502392344558,0.0,6.244390861106529,131.4546675628966,35.32573050685648,1.085923
12.861226934,1,0.24299421757215833,0.6636363636363781,0,0,84.2500469495297,62.69044341241145,-10.32994240173329,10.958517174552354,15.05977452314895,1.8735502392344907,0.0,6.7728088187079685,133.30874465761292,36.50167781672453,1.188020
12.913729974,1,0.22902209074071658,0.6454545454545637,0,0,83.68521557268049,63.247283781835804,-10.756299650339944,10.676590280361852,15.15544661772197,1.8222200956938315,0.0,6.317029723038051,135.21308323080612,36.11080516470275,1.111585
12.965999302000002,1,0.2201698750309802,0.636363636363656,0,0,83.10208065476806,63.78702662347311,-11.167053821497447,10.38458594674964,15.249351341537476,1.7965550239235004,0.0,6.317029723038051,137.07930459358553,35.40260362178534,1.027702
13.017874579999999,1,0.211155748662212,0,0.3727272727272536,0,82.50882559487663,64.30317809968925,-11.372077458414562,9.887222213979356,15.06921725999023,-3.472445613636185,0.0,5.879837442156171,138.99533385203134,38.16196460835795,0.872632
13.070314371,1,0.251464239723759,0,0.3818181818181562,0,81.89937673811333,64.7984041902824,-11.580981107899992,9.347464285410428,14.882681612819649,-3.5571394090906696,0.0,7.338871773871372,141.0916392142031,42.17281377922593,0.929844
13.112270949000001,1,0.24408591531595833,0,0.39090909090908477,0,81.40379999041669,65.1729542005152,-11.750271136941183,8.882599515474432,14.72988275391015,-3.6418332045453967,0.0,6.903222639721189,142.91259812461735,44.2251526639758,0.893061
13.163297713,1,0.25303366658649695,0,0.39999999999997427,0,80.79268443979049,65.60205405515953,-11.941336744791357,8.29507259134216,14.539730140141536,-3.7265269999997597,0.0,7.3993483700056295,145.21414924055927,45.76278733112873,0.844158
13.214383343,1,0.24061665105876015,0.5999999999999885,0,0,80.16650693811093,66.0055741237046,-12.32350407793174,7.877743367951214,14.626263819926796,1.693894736842073,0.0,6.892880225168233,147.41143929516159,40.77431009073607,0.900867
13.266096938999999,1,0.22908085494123792,0.5999999999999862,0,0,79.51379990582174,66.39215808081761,-12.669150610377073,7.482668939642615,14.713861208014372,1.6938947368420663,0.0,6.436002838465006,149.43300061267436,37.83841410586442,0.966011
13.319726043000001,1,0.21505927326334437,0.5999999999999872,0,0,78.81911915966745,66.7714663371052,-12.995950754474347,7.091156658304542,14.80470326502153,1.6938947368420691,0.0,5.914202387637887,151.38119511417452,35.177722559864556,0.943437
13.373033376,1,0.26002723126993943,0.6090909090909201,0,0,78.1115483551971,67.12638326939287,-13.304930544912757,6.699299595598433,14.89636841235265,1.7195598086124713,0.0,7.437285484922512,153.2738278625717,36.76713843657387,1.193018
13.425729028000001,1,0.25041720562835185,0.636363636363642,0,0,77.39505354066296,67.4529960647943,-13.613446759974087,6.277365620443714,14.991039050692173,1.796555023923461,0.0,6.934173617150208,155.2448605911326,37.90867757973214,1.262355
13.467580389,1,0.3362924888502096,0.6454545454545465,0,0,76.81453967348659,67.69507281320124,-13.855944379057316,5.919153495279982,15.067301441738506,1.8222200956937828,0.0,8.892305785966002,156.8681969882395,40.48969633057703,1.432230
13.520857864000002,0,0.0,0.0,0.0,0,76.06300092195231,67.97706774087179,-14.078456603961662,5.368485110958539,15.067301441738506,0.0,0.0,6.408736358550999,159.12683775261274,42.24841507317777,1.286056
13.573452109,0,0.0,0.0,0.0,0,75.31300481524674,68.2329118588789,-14.262982990801342,4.857045289095714,15.067301441738506,0.0,0.0,3.9570162096519406,161.19449299332288,35.44290517354002,0.634017
13.616032133,0,0.0,0.0,0.0,0,74.70200067308487,68.42855075591469,-14.37218005586739,4.523716743778606,15.067301441738506,0.0,0.0,1.9721164781051201,162.52833951319755,26.899826626009546,0.079189
13.666833668,0,0.0,0.0,0.0,0,73.97043543542108,68.65374016507691,-14.454090029758095,4.2547448980947,15.067301441738506,0.0,0.0,0.07170275798594836,163.59753815032158,15.129824323148997,-0.494886
13.717918747,0,0.0,0.0,0.0,0,73.23309496557593,68.87461555622556,-14.494576740642989,4.1147075042858825,15.067301441738506,0.0,0.0,0.07170275798594836,164.1518634405258,7.495225417008149,-0.595425
13.768799189000001,0,0.0,0.0,0.0,0,72.49700711150983,69.08884698010904,-14.514297761162155,4.044593086645244,15.067301441738506,0.0,0.0,0.07170275798594836,164.42883057282972,3.832790651015043,-0.456720
13.821338592000002,0,0.0,0.0,0.0,0,71.7355272019145,69.30522665427402,-14.524700080650497,4.0070762787057985,15.067301441738506,0.0,0.0,0.07170275798594836,164.57687656060702,2.0272174250776187,-0.295014
13.872551923000001,0,0.0,0.0,0.0,0,70.9923486536119,69.51288905994845,-14.530268083649574,3.986838616434052,15.067301441738506,0.0,0.0,0.07170275798594836,164.65669302719598,1.191131967909158,-0.176354
13.924509747,0,0.0,0.0,0.0,0,70.23777651953567,69.72144837528968,-14.533746088619244,3.9741410855378674,15.067301441738506,0.0,0.0,0.07170275798594836,164.70675595931476,0.7857593050350994,-0.097757
13.977161211,0,0.0,0.0,0.0,0,69.47274742044219,69.93140031366612,-14.536213909823479,3.96510503064795,15.067301441738506,0.0,0.0,0.07170275798594836,164.7423753954608,0.5914648813155106,-0.049819
14.027800228999999,0,0.0,0.0,1.0,0,68.748252550047,70.12934177794814,-14.083351982266219,3.832591714666404,14.595532272162307,-9.316317499999998,0.0,0.07170275798594836,164.77640052431255,0.725034978141858,-0.033174
14.078632966999999,0,0.0,0.0,1.0,0,68.04401055293103,70.32114618403057,-13.628847054756182,3.6992209276812784,14.121958345559989,-9.316317499999998,0.0,0.07170275798594836,164.8143098000137,0.7571540244432152,-0.028541
14.120186523,0,0.0,0.0,1.0,0,67.48547758421644,70.47287181054662,-13.257212806252603,3.590532669105805,13.734832224609956,-9.316317499999998,0.0,0.07170275798594836,164.84578081845729,0.7548717427077464,-0.026839
14.17130519,1,0.6245118140484869,0.6999999999999769,0,0,66.80480797570368,70.65527608325539,-13.361426710924487,3.5920909731036073,13.835853472426585,1.9762105263157241,0.0,2.750284019910996,164.95237003876184,4.670801411833586,0.355879
14.222212286,1,0.6057473769499054,0.6636363636363835,0,0,66.11954518523514,70.82825943912985,-13.482005283054058,3.509232975482909,13.93123047431612,1.8735502392345056,0.0,5.395226086469495,165.41021398434728,13.892758382868085,1.039869
14.273023856,1,0.6429673231668845,0.6545454545454586,0,0,65.42682472748963,70.98497918778888,-13.632163627435414,3.296699843067523,14.025124420854686,1.8478851674641263,0.0,8.013511186979537,166.40503333725354,25.524676551703813,1.739374
14.323722873,1,0.6840591086013723,0.618181818181797,0,0,64.7261353862121,71.11828111316079,-13.806214527806938,2.9295569007286506,14.11360560673403,1.7452248803827153,0.0,10.60513940187529,168.020031563352,38.2956481917358,2.387316
14.375145906000002,1,0.7244716034254779,0.6090909090909206,0,0,64.00559845812342,71.22197210970522,-14.000406152564109,2.3845964799176853,14.202030587517786,1.7195598086124726,0.0,13.213257230217138,170.3339478342475,51.74941580284571,2.983102
14.425541618999999,1,0.6742474144837262,0.6454545454545305,0,0,63.29040245486913,71.28451603952601,-14.19552478313742,1.6737939290094426,14.293862668483197,1.8222200956937378,0.0,15.748779005568903,173.27530548260134,65.016436605992,3.513532
14.476236746,0,0.0,0.0,0.0,0,62.566106448577294,71.30269767474967,-14.272066500902087,0.7890676645801725,14.293862668483197,0.0,0.0,13.208694494779717,176.8354781488569,72.68923554633697,3.346673
14.527212679,0,0.0,0.0,0.0,0,61.837824231210426,71.28218510120078,-14.293378221652794,-0.11768176680859563,14.293862668483197,0.0,0.0,10.654540170709765,180.47172306711255,68.68595726472594,2.501882
14.57826955,0,0.0,0.0,0.0,0,61.110042178455025,71.228673759142,-14.263224176841456,-0.93538551764655,14.293862668483197,0.0,0.0,8.09633043989166,183.7520975706821,59.213928596193455,1.617489
14.631885859999999,0,0.0,0.0,0.0,0,60.34852311128448,71.14281659220578,-14.199246338046489,-1.6419236940037598,14.293862668483197,0.0,0.0,5.409879756837525,186.59607723196072,46.57230721915446,0.809007
14.673698344,0,0.0,0.0,0.0,0,59.75672727783308,71.05936127908265,-14.143420636476133,-2.068371989067407,14.293862668483197,0.0,0.0,3.3148609798647057,188.32011004352526,35.804441197621735,0.264573
14.724329428999999,0,0.0,0.0,0.0,0,59.0420879947518,70.9451606223942,-14.085642600941389,-2.430881013954133,14.293862668483197,0.0,0.0,0.7779853000198511,189.79157903034542,22.25600818462719,-0.321219
14.787400238000002,0,0.0,0.0,0.0,0,58.153618788617834,70.79230978781749,-14.044488088326425,-2.658357448183888,14.293862668483197,0.0,0.0,-0.2322543603180655,190.71821216105207,8.917357584216052,-0.648077
14.831151737,0,0.0,0.0,0.0,0,57.53827944911039,70.68071512187258,-14.030971135744716,-2.7288017468031964,14.293862668483197,0.0,0.0,-0.24082498833565422,191.00573390731668,4.676255089173601,-0.532001
14.882379228,0,0.0,0.0,0.0,0,56.81867474631524,70.54528625402668,-14.022912061347826,-2.7699182849252506,14.293862668483197,0.0,0.0,0.27213375999328115,191.17368230855783,2.2058148860217566,-0.352910
14.933321696000002,0,0.0,0.0,0.0,0,56.10374427785402,70.40709248768857,-14.019035447525253,-2.78947219138102,14.293862668483197,0.0,0.0,-0.22018364039850702,191.2535880377136,1.0765818723897722,-0.211910
14.984847367999999,0,0.0,0.0,0.0,0,55.38106078937853,70.26510001211899,-14.017037614605673,-2.7994939714504277,14.293862668483197,0.0,0.0,0.31582170118580477,191.2945499566996,0.596642100608905,-0.114835
15.028127973000002,0,0.0,0.0,0.0,0,54.77423342541385,70.14474783034689,-14.015992485067326,-2.8047218478832856,14.293862668483197,0.0,0.0,0.27331328419951684,191.31592012259898,0.39891160117027136,-0.066382
15.079089802,0,0.0,0.0,0.0,0,54.05985116386078,70.00232310024832,-14.015207095911496,-2.808643808703703,14.293862668483197,0.0,0.0,-0.21691528459319998,191.3319531004464,0.2543413750090252,-0.034822
15.132928375,0,0.0,0.0,1.0,0,53.3185019167063,69.85390958877076,-13.522460185426844,-2.714812678510404,13.792285428668269,-9.316317499999998,0.0,0.3155560547669715,191.35197380481574,0.4525209983853664,-0.011179
15.186650586,0,0.0,0.0,1.0,0,52.605224845468136,69.71071710588076,-13.030684648980657,-2.6216404992623263,13.291792254190273,-9.316317499999998,0.0,-0.2805282133196573,191.3754645931644,0.38205547996418576,-0.017443
15.228954247999999,0,0.0,0.0,1.0,0,52.06212242972581,69.60160167891652,-12.64372752721761,-2.546811658780716,12.897677907585603,-9.316317499999998,0.0,-0.2997776278121524,191.3886298522343,0.239009091072913,-0.026841
15.282313556,0,0.0,0.0,1.0,0,51.400433082149355,69.46847576863925,-12.155804200996718,-2.4516224695883913,12.400565652677304,-9.316317499999998,0.0,0.3963893314199485,191.4026378395249,0.37834367818739606,-0.003001
15.335593817000001,0,0.0,0.0,0.0,0,50.752815729913955,69.3376196228836,-12.154844370819594,-2.456376768233105,12.400565652677304,0.0,0.0,-0.21674666100865622,191.425047874585,0.4356924326271706,0.016688
15.389032864999999,0,0.0,0.0,0.0,0,50.10333658572041,69.20603609837187,-12.153908182362594,-2.4610047543756814,12.400565652677304,0.0,0.0,0.3625707871222395,191.44686421993887,0.3610523086960603,0.014333
15.442456358,0,0.0,0.0,0.0,0,49.45408266845367,69.07431242899591,-12.153162437972046,-2.4646848201393676,12.400565652677304,0.0,0.0,-0.2671433290254909,191.46421326526584,0.28014775725835517,0.010289
15.495791668,0,0.0,0.0,1.0,0,48.81891630897922,68.94529514832081,-11.665532365884534,-2.3691517563499187,11.903676970756369,-9.316317499999998,0.0,0.41798602982232297,191.48005973488154,0.3858953457275648,0.018479
15.538467823,0,0.0,0.0,1.0,0,48.329441648878905,68.84562441791253,-11.275167743641457,-2.2936333130746487,11.506092361097167,-9.316317499999998,0.0,0.3814208631600847,191.49841172337682,0.4428461468102804,0.019371
15.591596138000002,0,0.0,0.0,1.0,0,47.74335141172446,68.72611310460225,-10.789268518054971,-2.1992533269646253,11.011132110317135,-9.316317499999998,0.0,-0.26459849686263404,191.52117014151986,0.42576036160340464,0.013817
15.644543195999999,0,0.0,0.0,0.0,0,47.1721648376225,68.60930946807123,-10.788343442730536,-2.2037867665793187,11.011132110317135,0.0,0.0,0.47046055875008397,191.54524573925048,0.5371119955395027,0.039323
15.698483111,0,0.0,0.0,0.0,0,46.59035391126159,68.48989340530501,-10.787246752657136,-2.209148670448674,11.011132110317135,0.0,0.0,-0.20842832979886974,191.57372370465137,0.5360002444741353,0.041078
15.751640830000001,0,0.0,0.0,0.0,0,46.01703685259095,68.37193219112842,-10.786191061615376,-2.214297345251002,11.011132110317135,0.0,0.0,0.4564579884397833,191.6010719032276,0.5018062384483899,0.038063
15.794339326000001,0,0.0,0.0,0.0,0,45.55655521120252,68.2770325920144,-10.785430194041844,-2.2180004238745354,11.011132110317135,0.0,0.0,0.4068101631370524,191.62074319002934,0.39720898339053085,0.026781
15.849500112,1,-0.0991792047125397,1.0,0,0,44.95709604506267,68.15539900079864,-10.940272239481617,-2.238124059391657,11.16685971879292,2.823157894736842,0.0,-3.154579247744136,191.56184544110033,-4.180413414485041,-0.490237
15.903099309,1,-0.10815228485450931,1.0,0,0,44.364794494350356,68.04455370769975,-11.103932671870469,-2.191768382431987,11.318178714955025,2.823157894736842,0.0,-3.154579247744136,191.16588699789074,-9.740387889475793,-0.968952
15.956023599,1,-0.11642321556696231,1.0,0,0,43.77062296631106,67.94200788501053,-11.2734601945886,-2.1011352563389125,11.467592342091868,2.823157894736842,0.0,-3.9231040441753606,190.55759065828823,-12.877990252259947,-1.156920
15.997761008,1,-0.12657027151276787,1.0,0,0,43.29559039612046,67.86594042559727,-11.409746436770101,-2.0099072407152305,11.585423637816078,2.823157894736842,0.0,-3.9178572435235255,189.9905568390912,-14.153452428135097,-1.192429
16.050299261000003,0,0.0,0.0,0.0,0,42.693733368601166,67.77507618794051,-11.433737001727064,-1.8686088523296969,11.585423637816078,0.0,0.0,-0.6434543879490396,189.2817596820318,-10.976544848542085,-0.700119
16.103666845000003,0,0.0,0.0,0.0,0,42.082661293900685,67.68090764051584,-11.44581141266846,-1.7931653502384957,11.585423637816078,0.0,0.0,0.039389503738766596,188.90390444495955,-4.073745555394701,-0.040773
16.157029695000002,0,0.0,0.0,0.0,0,41.47181342146605,67.58564633359626,-11.449982727847559,-1.7663341698727688,11.585423637816078,0.0,0.0,0.039389503738766596,188.76961666431816,-1.3958548966584488,0.076611
16.209910489000002,0,0.0,0.0,0.0,0,40.866409999557405,67.49171933003736,-11.451321772324876,-1.7576320816216908,11.585423637816078,0.0,0.0,0.039389503738766596,188.7260739127918,-0.41025485515314597,0.067445
16.253054457,0,0.0,0.0,0.0,0,40.37242321099921,67.41544207680472,-11.451621477489422,-1.7556783315774325,11.585423637816078,0.0,0.0,0.039389503738766596,188.71629860747257,-0.08588843385753195,0.048359
16.304657434000003,0,0.0,0.0,0.0,0,39.78154671635476,67.32444515141717,-11.451608677239369,-1.7557618207044876,11.585423637816078,0.0,0.0,0.039389503738766596,188.71671632799348,0.07645639809276833,0.031269
16.345087586000002,0,0.0,0.0,0.0,0,39.31859222006749,67.25322643743314,-11.451476880144417,-1.756621225872387,11.585423637816078,0.0,0.0,0.039389503738766596,188.72101621054563,0.12963617323866303,0.023118
16.409606447,0,0.0,0.0,0.0,0,38.57980336361659,67.13958273901045,-11.45118115208461,-1.758548006114622,11.585423637816078,0.0,0.0,0.039389503738766596,188.73065669642403,0.16273033716745494,0.016414
16.451778988,1,-0.2585642302549933,1.0,0,0,38.09423840055672,67.06608353684975,-11.570141872046298,-1.7682613637806825,11.70448337988134,2.823157894736842,0.0,-2.5776528014860527,188.68926188296592,-3.0910372523333116,-0.342727
16.506228588000003,1,-0.27702120314797263,1.0,0,0,37.45858978626564,66.97982931984428,-11.73497719226171,-1.705078702534675,11.85820319798661,2.823157894736842,0.0,-5.92305145500325,188.2671568219826,-13.12882710881822,-1.287525
16.559154143,1,-0.28508877311955066,1.0,0,0,36.83054940135783,66.91359386031226,-11.911609983308225,-1.515419146648797,12.007620396418183,2.823157894736842,0.0,-7.901626182419937,187.25033589173046,-25.18495306106002,-2.250103
16.612798767,1,-0.30190111618483967,1.0,0,0,36.18393453424397,66.86870502776412,-12.09985620830877,-1.198501404495456,12.159067640173973,2.823157894736842,0.0,-8.595653227868754,185.65674594064146,-33.43376256943684,-2.701096
16.654986858,1,-0.31960486288327034,1.0,0,0,35.6688371258879,66.84929062714907,-12.24579477881303,-0.8910669300252692,12.278171282344498,2.823157894736842,0.0,-9.196406277176193,184.16180031434078,-37.19278781244935,-2.808406
16.709103076,1,-0.3291546859958134,1.0,0,0,35.000301687827346,66.84615267477514,-12.42299794249145,-0.44456472682401577,12.430949910424502,2.823157894736842,0.0,-9.782080354888143,182.04949062439084,-40.41452909045062,-2.852800
16.763259150000003,1,-0.26225243619812794,0.9909090909090975,0,0,34.323328500257944,66.86681476427033,-12.582423961891347,0.026151529476351434,12.58245113875955,2.7974928229665257,0.0,-7.887680736430363,179.88091562374746,-38.394125846407086,-2.444690
16.807600013000002,0,0.0,0.0,0.0,0,33.76626952328986,66.89758906636807,-12.576488627446066,0.38731184204881586,12.58245113875955,0.0,0.0,-5.323621616282663,178.2360479979541,-34.69182801661541,-1.889236
16.860969007,0,0.0,0.0,0.0,0,33.096409163382,66.94462173686532,-12.560874356085005,0.7365541866812009,12.58245113875955,0.0,0.0,-2.237500901879544,176.64408904422086,-24.269243082406955,-0.913757
16.914284246,0,0.0,0.0,0.0,0,32.42747192647247,66.99506361778569,-12.546908480338042,0.9450736718863957,12.58245113875955,0.0,0.0,-0.38646336910556306,175.6924309978491,-11.59858273185024,0.011312
16.967619933,0,0.0,0.0,0.0,0,31.758340170990305,67.04633618401522,-12.539736758668031,1.0358951117662878,12.58245113875955,0.0,0.0,0.18872364028380126,175.2775758101001,-4.969588125585614,0.223389
17.010311748000003,0,0.0,0.0,0.0,0,31.22290382902758,67.08942592112403,-12.5368421030611,1.070358230774194,12.58245113875955,0.0,0.0,0.18937990867797716,175.12009100838654,-2.6741987942262004,0.183330
17.062434395,1,0.0063346433740551706,0.6636363636363611,0,0,30.566783461520192,67.14387302828943,-12.632744357499146,1.0949184514179175,12.680105536515928,1.8735502392344427,0.0,0.18937990867797716,175.04637965459662,-0.48496697234009833,0.168516
17.116993289000003,1,0.014856470875287037,0.6272727272727266,0,0,29.87472262479921,67.2014061971131,-12.729569874364591,1.0966813391373655,12.77672333370112,1.7708899521531083,0.0,0.8274424265826914,175.0759968567083,1.3287888778242536,0.205441
17.159602081000003,1,0.01876368502608952,0.600000000000003,0,0,29.330613963158658,67.24606564786438,-12.802831870069456,1.0870508615982755,12.848898142213118,1.6938947368421136,0.0,0.8347404615495259,175.14682378196716,1.949585130940442,0.192546
17.212922802,1,0.1736283965681408,0.5636363636363656,0,0,28.645239669454043,67.29839964395465,-12.891707703649454,1.0419232324383603,12.933743910354398,1.591234449760771,0.0,3.8437694491139442,175.37932996075799,7.98985439756045,0.704370
17.266251814,1,0.1895575943729671,0.5363636363636372,0,0,27.954457986495232,67.33735046523472,-12.983982407341479,0.8906894026452684,13.014496792659239,1.514239234449763,0.0,5.677610861696314,176.0757095371874,17.785950582703954,1.404930
17.309502729000002,1,0.2036412009787398,0.5090909090909134,0,0,27.390549237426985,67.35618274131191,-13.058564082179021,0.6876862664350333,13.07665891156527,1.437244019138768,0.0,5.687403385116403,176.9854910966381,23.604789965413946,1.677981
17.362270825000003,1,0.3702914343293799,0.4909090909090912,0,0,26.698646923273923,67.36253095993514,-13.144632176581464,0.36830275385443245,13.149790948000561,1.3859138755980869,0.0,8.612419367259985,178.39503506808916,30.8296954328258,2.055715
17.415579884000003,1,0.38831172839069583,0.4545454545454556,0,0,25.996201205247704,67.34141802835767,-13.217972371573708,-0.07757151835703412,13.218199989262763,1.2832535885167493,0.0,11.550401248382597,180.33624443022848,42.43993173709106,2.778030
17.469190976000004,1,0.4003565643126217,0.43636363636363384,0,0,25.288122577700793,67.28479966849916,-13.267489817838813,-0.666987647782773,13.284244750408334,1.2319234449760694,0.0,11.550401248382597,182.87796955497512,51.17205688414913,3.107899
17.522331869000002,1,0.41519414041967945,0.4181818181818152,0,0,24.586517303584916,67.19342821767285,-13.280193096725437,-1.3335719111932025,13.346982532716428,1.1805933014353982,0.0,12.122092695123559,185.73431099052533,55.742237314292915,3.121172
17.564948358000002,1,0.4861601607157648,0.40909090909091084,0,0,24.025700131055927,67.0926780137386,-13.258696485486764,-1.9144666727405102,13.39620151891174,1.1549282296650767,0.0,13.85584610373269,188.21633762927146,61.227470534022295,3.381709
17.628977886,1,0.4858590079977941,0.4000000000000037,0,0,23.190380191318358,66.8886659704476,-13.157193138390914,-2.8790568842859057,13.46850770589953,1.1292631578947472,0.0,13.85584610373269,192.34291428124894,66.78860785332155,3.489382
17.671598922,1,0.4855008184035519,0.40000000000000124,0,0,22.64121111077613,66.71822844943229,-13.042027952120316,-3.5503537365861546,13.516638071605636,1.1292631578947403,0.0,13.85584610373269,195.22827911189546,68.4424973345496,3.427974
17.724939048000003,1,0.5527750941713472,0.3999999999999968,0,0,21.96507608094785,66.46376965672273,-12.837274323488984,-4.419940204175494,13.576873110734903,1.1292631578947279,0.0,15.568346969200476,198.99885152614135,73.78394772579863,3.710770
17.778411929,1,0.5413902976172704,0.4090909090909093,0,0,21.304392162248693,66.15923239023269,-12.550696112645205,-5.337814876330433,13.638630450523321,1.1549282296650722,0.0,15.568346969200476,203.0400642145899,76.96641878253641,3.737158
17.820992068000002,1,0.5347104802179595,0.4272727272727277,0,0,20.792457094505682,65.882898550236,-12.269773129857986,-6.07195013256161,13.689993099724338,1.2062583732057428,0.0,15.572207151759214,206.3294552700532,77.5092479462925,3.622031
17.874181007,1,0.5281603598473047,0.43636363636363784,0,0,20.173377521591465,65.49654091075445,-11.856432012142205,-6.974187401167218,13.755517800691837,1.2319234449760808,0.0,14.963406686608899,210.4648829900613,77.92650466206767,3.521366
17.927620044,1,0.5046352712963469,0.46363636363636396,0,0,19.576527833465455,65.06449352593953,-11.38469558026439,-7.844245868968701,13.82546515340891,1.3089186602870821,0.0,14.410324343665133,214.56749224952725,75.76906993509843,3.255462
17.979169038000002,1,0.4856801661197975,0.47272727272727133,0,0,19.026401202201466,64.60881000604488,-10.887644682047538,-8.631900065918094,13.894261602205237,1.3345837320574123,0.0,13.846577591730622,218.40794752321352,73.39532512432108,3.041326
18.021755869000003,1,0.46324762725875623,0.5090909090909091,0,0,18.592070067384928,64.20513971416575,-10.454813816671491,-9.244024589675831,13.955469270354062,1.437244019138756,0.0,13.274269957110885,221.4827394383352,71.09226248122727,2.870192
18.073358502,1,0.4444775019190081,0.5363636363636346,0,0,18.090969573283836,63.68527941548067,-9.911212026049881,-9.935292130787706,14.033608001843572,1.5142392344497557,0.0,12.70490301168882,225.06951792032376,68.15596613635253,2.678911
18.124986157000002,1,0.38703429450701704,0.5909090909090917,0,0,17.617331554515477,63.13418755999901,-9.360789909450093,-10.570833587713802,14.119734787452664,1.6682296650717725,0.0,11.148725891446778,228.4741478679634,63.32643502099309,2.346789
18.179178937000003,1,0.36045801108647946,0.6181818181818164,0,0,17.147964304639917,62.52672917513542,-8.800418180773283,-11.16240765152804,14.214313375445775,1.7452248803827701,0.0,10.543804174699558,231.74782995346018,57.889098565227485,2.037770
18.234219522000004,1,0.3309780993518087,0.6454545454545617,0,0,16.700238118699634,61.88187398817093,-8.250133675632194,-11.698005711463601,14.31460943551152,1.8222200956938257,0.0,9.443682214258759,234.80621958634882,53.281382259721255,1.817958
18.277962976,1,0.28640885405718475,0.6909090909090727,0,0,16.364127709197923,61.351382022527254,-7.834076956399596,-12.082438062533607,14.399933030877332,1.950545454545403,0.0,8.36522104208681,237.04121192202632,48.62935770541476,1.560184
18.330093634,1,0.25052035508752196,0.7181818181818225,0,0,15.98372983825514,60.70107611282248,-7.378258726540397,-12.48897920589389,14.50563006011871,2.0275406698564713,0.0,6.783483815301767,239.4261889565274,42.78789479446477,1.263299
18.384128211000004,1,0.21861117944903766,0.7636363636363791,0,0,15.60998539638421,60.008578355345726,-6.961300578423211,-12.858721848925471,14.622121369048632,2.1558660287081777,0.0,6.2421251810984755,241.5703033432136,37.162623379865764,1.028718
18.437905922000002,1,0.19719543209427054,0.7818181818181871,0,0,15.257554374644702,59.30210071573852,-6.588307174947235,-13.186582688378397,14.740819326920132,2.2071961722488185,0.0,5.699582585684462,243.45227643793007,33.19750827204431,0.910928
18.480428177,1,0.16796002250126263,0.7999999999999872,0,0,14.991638785433844,58.73224751721866,-6.318105829891105,-13.424375707626172,14.836856958844338,2.2585263157894375,0.0,4.72040280065979,244.79624680745542,30.052460637467973,0.787264
18.533597587000003,1,0.1442045161729467,0.8363636363636437,0,0,14.67244206235907,58.00721337764267,-6.020568344887485,-13.697670104723198,14.962399857418891,2.361186602870834,0.0,4.222826716436918,246.2729604985271,25.88601488043589,0.617519
18.588120464000003,1,0.13547646554942566,0.8454545454545465,0,0,14.359224404734986,57.25012245231618,-5.751303289569277,-13.953752544064097,15.092537877692594,2.386851674641151,0.0,3.7410815719289663,247.60006487491682,23.172966731926,0.558354
18.631597639000002,1,0.11976193926285525,0.8545454545454573,0,0,14.118938637904863,56.63707656705317,-5.556242974053073,-14.14531584173042,15.197427290466756,2.412516746411491,0.0,3.720676637648606,248.55523017464577,20.99447340871462,0.483122
18.684913436000002,1,0.1042428465132784,0.8545454545454476,0,0,13.83440258288684,55.87476516607592,-5.340149558563897,-14.365607862553853,15.32605254357753,2.412516746411464,0.0,3.237941394578334,249.60831186435158,18.537523255340073,0.394464
18.738280179,1,0.08124171353798447,0,0.15454545454545443,0,13.560768907729448,55.106176377106834,-5.075165798049607,-14.37989090420616,15.249215399310339,-1.4397945227272715,0.0,2.242017433819096,250.56028339529874,16.716533537315588,0.208360
18.791744292,1,0.06950682341311348,0,0.14545454545454328,0,13.297551797939565,54.33660191970021,-4.843821469744957,-14.383032505867403,15.17676614090105,-1.355100727272707,0.0,1.7282140623480882,251.3878480672974,14.482044135478732,0.092350
18.845033225,1,0.057345214597306744,0,0.1636363636363658,0,13.045738022499224,53.57033271713861,-4.638738142504453,-14.365133746492473,15.095527785054173,-1.524488318181838,0.0,1.7282140623480882,252.1038777775025,12.617940613158131,0.041150
18.887582823000002,1,0.09980604910375598,0,0.17272727272727262,0,12.853189660758519,52.959096859693695,-4.476814164372917,-14.344706307516034,15.027057733010155,-1.6091821136363624,0.0,2.7156627011426546,252.6674709794603,14.488729078233629,0.271605
18.941026346,1,0.09609538184982867,0,0.19999999999999984,0,12.624451905665943,52.19204614456788,-4.243909206078422,-14.3114934600327,14.927478367292847,-1.8632634999999982,0.0,2.7156627011426546,253.48288070802582,15.83445238844952,0.358295
18.994449154,1,0.14005819872903044,0,0.21818181818181737,0,12.411054677394429,51.42668775671244,-3.9784681389249634,-14.274846612671366,14.818888438332218,-2.032651090909083,0.0,4.246318323080915,254.4265915895214,19.910001563939616,0.630519
19.036929106000002,1,0.14169786529357675,0,0.2272727272727334,0,12.25429431556848,50.81899280329558,-3.7319486933647488,-14.248310156920319,14.728943729192041,-2.1173448863636932,0.0,4.19429896631463,255.32267205758566,22.007400856946557,0.681872
19.090227459,1,0.14332702351894844,0.7454545454545343,0,0,12.07198739162725,50.052368871506026,-3.465063907269634,-14.430936846855786,14.84111202570086,2.1045358851674325,0.0,4.19429896631463,256.4981136558473,22.115996282825098,0.734012
19.132326198,1,0.1803116797736353,0.7272727272727327,0,0,11.93941704732906,49.43995255877592,-3.2394233111839563,-14.571817582256767,14.927549398330909,2.0532057416268095,0.0,5.211392711417928,257.4665400944157,24.2328148179828,0.904903
19.182657879,1,0.17860554691473254,0.7272727272727384,0,0,11.796264117381277,48.699756478106714,-2.934339805820115,-14.741686639641223,15.030890694745835,2.0532057416268255,0.0,5.211392711417928,258.74238809620977,26.249966737362485,0.984146
19.235014553000003,1,0.17666735559353644,0.7090909090909036,0,0,11.664336911325599,47.92116063094913,-2.5949155455874333,-14.911602720521952,15.13570224282339,2.0018755980861087,0.0,4.744411074506331,260.12825073354566,26.66205762273591,0.917624
19.285300834,1,0.2181026368827765,0.709090909090914,0,0,11.55516279182201,47.165380179565894,-2.2465037734917677,-15.069842892599867,15.23636912167579,2.001875598086138,0.0,6.13866639017231,261.52119672426437,29.573638567996554,1.079969
19.339220205000004,1,0.21525622979536616,0,0.3090909090909165,0,11.462468930307006,46.353336334223464,-1.7642497582757206,-14.977553382143766,15.08110349160638,-2.879589045454614,0.0,6.13866639017231,263.281920152621,35.02425589633915,1.089983
19.393109040000002,1,0.21430276894081784,0,0.3000000000000097,0,11.39581653870004,45.547477119794976,-1.2381921379104208,-14.879059351003972,14.930489842636844,-2.79489525000009,0.0,6.13866639017231,265.2429722458875,37.44047921362482,0.949188
19.435712926,1,0.22467233048886584,0,0.3000000000000105,0,11.36248386317015,44.914814644042096,-0.8068177668406783,-14.789425349533087,14.811416444023902,-2.794895250000097,0.0,6.154559180093023,266.87739892247686,39.0870460899451,0.904115
19.489672927,1,0.21794267060353983,0,0.3000000000000115,0,11.345298467348066,44.11988500097382,-0.2582885955236867,-14.658328469667794,14.660603893539001,-2.7948952500001063,0.0,6.154559180093023,268.99051824866467,39.19608995347804,0.773927
19.542537712,1,0.23108023879164794,0.6909090909090954,0,0,11.356897844801903,43.34226321211987,0.2544002719876715,-14.761527054244246,14.763719059626277,1.950545454545467,0.0,6.692659439914571,270.9873381670975,36.88718968873681,0.944710
19.596708624,1,0.22018271395527272,0.6999999999999903,0,0,11.398136514948773,42.54070057233972,0.7619216282229615,-14.851240380673426,14.870772186140803,1.976210526315762,0.0,6.12277076141407,272.93690305731513,35.28574564751412,1.001100
19.652393499000002,1,0.20705839383966265,0.718181818181809,0,0,11.46843309484034,41.712493241625644,1.2620814581347188,-14.930428089246762,14.983675534899177,2.0275406698564336,0.0,5.59113158189033,274.83177315061806,33.078303553545105,0.932874
19.695767509000003,1,0.20486120129049015,0.7272727272727165,0,0,11.54193267800578,41.06483368591784,1.6402940003522586,-14.9832127553689,15.072731301268556,2.0532057416267637,0.0,5.622937327191181,276.247601766729,32.3130137905116,0.933526
19.750255333000002,1,0.18926221046036473,0.7181818181818166,0,0,11.656419680366167,40.24856031533914,2.100745445905193,-15.03717596499607,15.183207580440534,2.027540669856455,0.0,5.13526437374024,277.9529455947599,30.522980290193725,0.838657
19.804935325000002,1,0.17691276613819062,0.7363636363636411,0,0,11.794998462739054,39.42686446261287,2.5452624878039436,-15.083639591614533,15.296880219886123,2.0788708133971427,0.0,5.13526437374024,279.57804732876406,29.12051649550929,0.777895
19.847671433000002,1,0.20241911395901568,0,0.27272727272726793,0,11.91993070731848,38.787565658674566,2.873168575920653,-14.91406146360376,15.188295724201865,-2.5408138636363184,0.0,6.106038464619555,280.90434522359095,32.91502785508401,0.878662
19.903003287,1,0.1925649102437518,0,0.27272727272727515,0,12.103487389040751,37.97148014309608,3.3312554766777143,-14.674339728088302,15.047707782457962,-2.540813863636386,0.0,5.594786857697125,282.79007625587826,34.785198738583,0.776566
19.957103357,1,0.19861334313092222,0,0.2727272727272696,0,12.30588344927046,37.18683331773895,3.7816040440553107,-14.42272558257266,14.910249574578266,-2.540813863636334,0.0,5.594786857697125,284.69209341634064,35.42574412997093,0.685127
20.000700597,1,0.19062022499987968,0,0.27272727272727293,0,12.485320245591659,36.56457393333705,4.134458679255429,-14.210234830745849,14.799477102769984,-2.540813863636365,0.0,5.568846754515558,286.22232071188944,34.815816392243136,0.585336
20.053384253,1,0.17855758144345654,0,0.2727272727272756,0,12.720798734609907,35.82502175598779,4.537540187688573,-13.946005618741905,14.665617739218135,-2.54081386363639,0.0,5.032231634006624,288.02306746081985,33.47506603933121,0.490724
20.108125558,1,0.2003633390158328,0.7272727272727232,0,0,12.990240222633322,35.06555323304294,5.0022607093008675,-13.905648244392586,14.77801290094828,2.053205741626783,0.0,5.621006846286722,289.7851140308136,31.59527832944369,0.759725
20.162581775000003,1,0.1892094380044809,0.7272727272727247,0,0,13.285145834470386,34.31354205610743,5.445479652109921,-13.85833943669461,14.889822718359955,2.0532057416267873,0.0,5.121428950399489,291.45179066102367,29.87627694458999,0.814422
20.205117012000002,1,0.1777862372679826,0.7363636363636328,0,0,13.532164324092994,33.72832911897791,5.778836248575606,-13.81857316062264,14.978247981100184,2.078870813397119,0.0,5.121428950399489,292.69436030757885,28.689601092626482,0.805810
20.257963472000004,1,0.1778588941605836,0.7272727272727247,0,0,13.858552107230878,33.00408558907895,6.182360933143723,-13.761850108111574,15.086752636196838,2.0532057416267873,0.0,5.121428950399489,294.19147945327046,28.076355076633085,0.820338
20.311161382,1,0.16407514709842147,0.7272727272727219,0,0,14.207836291691171,32.27828746931912,6.5765025563674895,-13.699174740294971,15.195978890451379,2.053205741626779,0.0,4.629796055466581,295.64406057914977,26.581379041975836,0.732722
20.365183817000002,1,0.1552348853139464,0.7181818181818156,0,0,14.58232833245528,31.54445662301115,6.95745767778925,-13.632771809829455,15.305511574498556,2.027540669856452,0.0,4.109022015062823,297.0374021557215,25.157009992297823,0.658813
20.408699660000003,1,0.19866690277176036,0,0.29090909090909556,0,14.896884524539692,30.960314277576817,7.177150931732223,-13.384727679016514,15.187574873504179,-2.7102014545454973,0.0,5.637438695959936,298.2010736274277,29.041571432893694,0.797816
20.463634195,1,0.1914832934922415,0,0.3090909090909062,0,15.309849676868813,30.240402374027514,7.4910838796894215,-13.029432278222913,15.029385988301048,-2.879589045454518,0.0,5.067847293065129,299.8961268096957,32.167476991845284,0.781368
20.517570738000003,1,0.1883170600938064,0,0.318181818181816,0,15.731334653679582,29.553047342470958,7.807703415940139,-12.654717755229074,14.869502819388188,-2.9642828409090702,0.0,5.6540538979232755,301.6737415969439,33.627472395653875,0.703726
20.560119267,1,0.21681132826839974,0,0.32727272727272494,0,16.07603225584312,29.025837033678886,8.063657635846075,-12.338490341149924,14.739773348555556,-3.048976636363614,0.0,6.179567278765522,303.1660939077014,36.40322662243724,0.819909
20.611795587000003,1,0.20918511302340306,0,0.3363636363636351,0,16.50949596408616,28.40464049802206,8.377381827269605,-11.93033106289393,14.577836792546377,-3.1336704318181696,0.0,5.699026881342857,305.0762197245258,37.37371351243803,0.763770
20.663310879,1,0.20192193958503152,0.6545454545454547,0,0,16.960347987126806,27.80102927397067,8.8067276501394,-11.736242619760006,14.673031136530755,1.847885167464115,0.0,5.699026881342857,306.8840977703603,33.35939667871098,0.779180
20.715783021000004,1,0.22582559523168622,0.6545454545454531,0,0,17.442842765318865,27.19783217875022,9.221246778922144,-11.537821269886535,14.76999362943763,1.8478851674641108,0.0,6.188254378687417,308.6325149175214,33.594385008843616,1.010314
20.75606502,1,0.21257165242578285,0.6545454545454551,0,0,17.828924531340864,26.743197190153655,9.537942593845678,-11.374742071610342,14.84443013790553,1.8478851674641164,0.0,6.188254378687417,309.98048763812324,33.374579248131504,1.047155
20.808108694,1,0.2011818616012436,0.6454545454545487,0,0,18.345937147929675,26.165854735240906,9.934637652348572,-11.157267516385797,14.939265166522068,1.822220095693789,0.0,5.698988135431862,311.6824605365705,32.06120613462287,0.969113
20.86097493,1,0.2449878065527198,0.6272727272727264,0,0,18.892269104420002,25.59215549832986,10.333724856256833,-10.917956568335267,15.032885452662622,1.7708899521531076,0.0,7.192129114145977,313.42527366447973,34.42635468573136,1.172369
20.914449949,1,0.237766797409119,0.6181818181818151,0,0,19.468230804598505,25.027840067441595,10.756253906180161,-10.635096276424903,15.126211386300366,1.7452248803827664,0.0,6.682075114878541,315.3245118495713,36.37114323403391,1.235994
20.967601478000002,1,0.2312195353420806,0.5999999999999969,0,0,20.06262025422772,24.4829705104764,11.176531324380216,-10.325659479025864,15.216244481528577,1.6938947368420965,0.0,6.682075114878541,317.26609202062394,36.66754925169329,1.157402
21.021108083,1,0.2745373176246382,0,0.4181818181818212,0,20.67783837995766,23.958340135066045,11.402354136066265,-9.758073598309888,15.007787318399071,-3.8959145909091184,0.0,8.176013548420494,319.44326561105754,44.66103670743753,1.294034
21.064365789000004,1,0.26679440484938594,0,0.4272727272727339,0,21.18418011998692,23.558060375840498,11.603298556100597,-9.244368634296308,14.835595331120608,-3.9806083863636976,0.0,7.6553677441728185,321.4556053160418,47.829895098940355,1.147908
21.116868145,1,0.2613468669680526,0,0.44545454545454544,0,21.80748084421837,23.100643493784453,11.825745491823579,-8.59239265685456,14.617710764923277,-4.149995977272726,0.0,7.163923770949729,323.99846004539074,48.88470531943938,0.889935
21.170209322,1,0.2901234159177223,0,0.44545454545455165,0,22.45053581596041,22.670335906219705,12.028149035010957,-7.910649965992932,14.39634509495028,-4.149995977272784,0.0,8.244400959098343,326.66795717329956,51.546000232127916,0.941641
21.224079786,1,0.2791880858240711,0.5545454545454597,0,0,23.117179763691603,22.269764643981567,12.448312206461788,-7.397952731971883,14.480683043766817,1.5655693779904452,0.0,7.692653039123719,329.2772536001705,46.088460285913804,1.079209
21.27689029,1,0.2664035281732144,0.5636363636363586,0,0,23.791705467894968,21.90488127114602,12.814322795966829,-6.92272422799647,14.564716937040846,1.5912344497607513,0.0,7.692653039123719,331.6206042900759,43.09633638886502,1.179735
21.31960695,1,0.2930232569962942,0.5727272727272816,0,0,24.351385770098496,21.629870763630713,13.092797401052598,-6.536538366084343,14.633785484156252,1.6168995215311257,0.0,8.76407538578387,333.469479302754,43.80021172769387,1.403062
21.372879841000003,1,0.276083977047285,0.5909090909090922,0,0,25.066058725811008,21.31268492811937,13.428651208972141,-6.035557384383307,14.722656901266593,1.6682296650717738,0.0,8.22056656360548,335.79828821366806,43.377875506882475,1.422910
21.42635792,1,0.2653956904363977,0.6181818181818242,0,0,25.799977769864206,21.0209162165271,13.744605298216106,-5.531666187203984,14.815988175292464,1.7452248803827919,0.0,7.728902698367291,338.0771428462289,41.78490248439518,1.319634
21.479698772000003,1,0.3394180819804734,0.62727272727273,0,0,26.548015782058297,20.75845709274552,14.044832140325262,-5.0064137028473725,14.910448954138552,1.7708899521531176,0.0,9.751768321550891,340.38090831365054,45.6888937061883,1.654297
21.522238298,1,0.3330185281116206,0.6636363636363587,0,0,27.156481877608403,20.573544818455545,14.287288277651472,-4.536293367185379,14.99014889325277,1.8735502392344359,0.0,9.681186935450473,342.38506766652444,48.270059735782795,1.756345
21.575355798,1,0.3321710151312572,0.7090909090909168,0,0,27.929800153924816,20.372614885893558,14.581745467863023,-3.908518106671051,15.096483520334107,2.001875598086146,0.0,9.176579162878761,344.9950465793437,49.82132204915646,1.730139
21.618275111000003,1,0.3580428547610571,0.763636363636364,0,0,28.5650478496721,20.235511886906032,14.809651004708009,-3.3734725223365345,15.189011809206304,2.155866028708135,0.0,10.1754198621076,347.1676209801655,51.77623627736135,1.788705
21.671607768,1,0.35342857342856626,0.8272727272727374,0,0,29.366890312258512,20.099416189731656,15.080097394846764,-2.663856398009727,15.313571377940598,2.335521531100507,0.0,10.1754198621076,349.9822091434612,53.594794069987294,1.789718
21.724863836,1,0.34308366601921925,0,0.045454545454554296,0,30.17596683903031,20.0025196104951,15.174948873743668,-1.8804763614577644,15.291019085291067,-0.4234689772728096,0.0,9.72823107593066,352.93593146070407,56.922519532521754,1.652422
21.778751942000003,1,0.3318708272837228,1.0,0,0,31.001940783426427,19.944310118523372,15.403577620292925,-1.1048951208059499,15.44315371717739,2.823157894736842,0.0,9.215819866606415,355.8972136307149,53.440445740060945,1.458818
21.833022112000002,1,0.31882797197737783,1.0,0,0,31.843912700303527,19.925607327881462,15.592543439378076,-0.3453287464032864,15.596366976061597,2.823157894736842,0.0,9.215819866606415,358.73127525304733,51.3215335334586,1.366160
21.887736854,1,0.2703039500648993,1.0,0,0,32.701183820650236,19.945973485445997,15.745831500801023,0.3969937038909711,15.750835331897381,2.823157894736842,0.0,7.743293538858888,361.4442708758234,47.33523947671406,1.105075
21.931537729000002,1,0.24511021817291243,1.0,0,0,33.392516859475364,19.987540465525285,15.846071434799294,0.9494841157676919,15.87449211795002,2.823157894736842,0.0,6.751348653336362,363.42901814025726,43.36019348814829,0.885296
21.986144410000005,1,0.22434610425283888,1.0,0,0,34.2597315937924,20.068807489928414,15.950181936771388,1.5841370308557394,16.028655400520552,2.823157894736842,0.0,6.318627065633791,365.67189053269306,39.327632763431076,0.728224
22.029266443,1,0.14373727354903257,1.0,0,0,34.94817032582932,20.154862335049724,16.020125046281333,2.047162680421916,16.150395708421595,2.823157894736842,0.0,4.507328882540361,367.282185056959,34.840175944698025,0.497673
22.083274994000003,1,0.12073265303032121,1.0,0,0,35.8150307743926,20.283540319811625,16.10463867272516,2.5345997126360844,16.30287037556055,2.823157894736842,0.0,3.129447646719195,368.94402887884854,26.894130279411424,0.127060
22.136270139,1,0.038412034081379706,1.0,0,0,36.670908027457585,20.427674100566385,16.19474087848783,2.900792802747756,16.45248403755001,2.823157894736842,0.0,0.9723323571743816,370.1550968222465,18.391940692981024,-0.203540
22.188441733,0,0.0,0.0,0.0,0,37.515860777036785,20.578742158530535,16.156797965925257,3.1051747928436066,16.45248403755001,0.0,0.0,-0.30988383400177055,370.8790234157295,9.595493525685924,-0.580825
22.231689463,0,0.0,0.0,0.0,0,38.215582305514715,20.707843360534355,16.1396965336881,3.192871247998315,16.45248403755001,0.0,0.0,-0.27732185150155,371.190179439774,5.2101552771792905,-0.580937
22.283848394,0,0.0,0.0,1.0,0,39.046252125848106,20.86534870075207,15.64958752834139,3.1656412932765035,15.966554875893413,-9.316317499999998,0.0,0.18490524224820343,371.4356374854464,4.326995340733669,-0.563001
22.335817751000004,0,0.0,0.0,1.0,0,39.84840642836374,21.02138704180978,15.16365461039642,3.125385756002536,15.482391845810524,-9.316317499999998,0.0,-0.25766767996538414,371.64616403938516,3.777001941528559,-0.505681
22.387302693,0,0.0,0.0,1.0,0,40.61806998052587,21.174584988115033,14.684392616543256,3.0742274461480976,15.002741779669487,-9.316317499999998,0.0,0.1838380911272023,371.82429156427924,3.162258637848828,-0.451899
22.439542672000005,0,0.0,0.0,1.0,0,41.373683540656295,21.327999097391167,14.200246766495404,3.011464517435166,14.516057549112093,-9.316317499999998,0.0,-0.31683328003809946,371.97339473735985,2.5422719099287616,-0.396815
22.482230838000003,0,0.0,0.0,0.0,0,41.98051711826814,21.453442076125544,14.196194258788157,3.0305107384538936,14.516057549112093,0.0,0.0,-0.320778385323069,372.0502542223517,1.192194354196782,-0.280876
22.535604223000004,0,0.0,0.0,0.0,0,42.738774594580946,21.612550716906746,14.194179118451668,3.0399351839216626,14.516057549112093,0.0,0.0,0.1993523502231191,372.0882939425445,0.35467165468448175,-0.169712
22.588872777000002,0,0.0,0.0,0.0,0,43.49523309829768,21.77281634114125,14.193785352384824,3.041773190025876,14.516057549112093,0.0,0.0,-0.32921486314749315,372.095713283403,-0.04608464968907867,-0.101513
22.642273300000003,0,0.0,0.0,0.0,0,44.2534226909536,21.934152632564743,14.194224057848173,3.0397253436352325,14.516057549112093,0.0,0.0,0.2118266391806795,372.08744690914784,-0.20639514473671358,-0.058036
22.695721208000005,0,0.0,0.0,0.0,0,45.01220423630678,22.09601149277426,14.194762503531699,3.037209942935239,14.516057549112093,0.0,0.0,-0.28144900890436914,372.07729354610296,-0.1640168148609831,-0.026381
22.738193218000003,0,0.0,0.0,0.0,0,45.61513178255948,22.22478592135681,14.195057031075704,3.03583310701402,14.516057549112093,0.0,0.0,-0.27816934306530516,372.0717361393565,-0.11821934247456932,-0.013149
22.791550081,0,0.0,0.0,0.0,0,46.372558318203495,22.38666168139137,14.195240152624141,3.034976734418495,14.516057549112093,0.0,0.0,0.3001853798662231,372.0682795686076,0.03879226792736646,0.005024
22.844957334000004,0,0.0,0.0,0.0,0,47.13065739605588,22.548890308194093,14.194973368684966,3.036224272259669,14.516057549112093,0.0,0.0,-0.21280229140652906,372.073315011753,0.13833462989184156,0.010342
22.898277857,0,0.0,0.0,0.0,0,47.88749524588641,22.710996187050863,14.194470407890476,3.038574766013789,14.516057549112093,0.0,0.0,0.3189161843091926,372.0828025785144,0.2270061444639474,0.014031
22.940877448000006,0,0.0,0.0,0.0,0,48.49213945450253,22.84059893136631,14.194000268750397,3.0407701557085582,14.516057549112093,0.0,0.0,0.2348868264390653,372.0916643847793,0.1482336460768486,0.003846
22.99422066,0,0.0,0.0,0.0,0,49.24930771459354,23.002734742030636,14.19395278567623,3.0409917933345714,14.516057549112093,0.0,0.0,-0.33014580075490063,372.09255905305827,-0.12357746598459551,-0.016856
23.047064368000004,0,-1.0,0.0,0.0,0,50.00000009809381,23.160441485935547,14.200221499283863,3.011583659872413,14.516057549112093,0.0,0.0,-2.924913197169328,371.97387545892764,-5.557258409928637,-0.449716
23.100947958000003,0,-1.0,0.0,0.0,0,50.767912691567034,23.309059604788853,14.22955596744866,2.8697846153292406,14.516057549112093,0.0,0.0,-5.570741581009186,371.4023325102985,-16.21615721996551,-1.123845
23.144553147,0,-1.0,0.0,0.0,0,51.39204306617737,23.414403363852657,14.274268270992135,2.638407113559503,14.516057549112093,0.0,0.0,-7.711872985559227,370.4721651721656,-26.623483125070194,-1.659395
23.196909941000005,0,-1.0,0.0,0.0,0,52.14515065307537,23.516240910725273,14.347950769998533,2.2027790335920336,14.516057549112093,0.0,0.0,-10.282731602293454,368.7282246773748,-40.11930072218963,-2.246461
23.250167251000004,0,0.0,0.0,0.0,0,52.91484440521383,23.588111265728703,14.426017378007117,1.6142953195034753,14.516057549112093,0.0,0.0,-7.667655241476339,366.3849306990358,-45.28240130527056,-2.039071
23.292692846000005,0,0.0,0.0,0.0,0,53.530841104327244,23.62808709244393,14.470752233473652,1.145974068882661,14.516057549112093,0.0,0.0,-5.579534789763967,364.5279423525925,-41.24485801387957,-1.394866
23.356987124000003,0,0.0,0.0,0.0,0,54.463273390253676,23.66786348088881,14.504895023159431,0.5691635408728877,14.516057549112093,0.0,0.0,-2.4225137811249287,362.2470998180075,-28.8599484995256,-0.380002
23.410208946,0,0.0,0.0,0.0,0,55.23554810027274,23.689175536886122,14.51363285584882,0.26530754749865987,14.516057549112093,0.0,0.0,0.19082002397735184,361.04724365534594,-15.988893794431101,0.341811
23.453029411,0,-1.0,0.0,0.0,0,55.857000597885545,23.701848713204377,14.515490166056473,0.12834332180507824,14.516057549112093,0.0,0.0,-1.9117793333821127,360.50658565198313,-11.033355548573779,0.322149
23.506262045000003,0,-1.0,0.0,0.0,0,56.62970563452079,23.704276552901327,14.515999527133733,-0.0410426289048667,14.516057549112093,0.0,0.0,-4.525644036602039,359.83800198217983,-15.432597653741997,-0.399843
23.559702851,0,-1.0,0.0,0.0,0,57.4051636404319,23.684343723369835,14.512659307896715,-0.31408053434268013,14.516057549112093,0.0,0.0,-7.1497305417899435,358.76020790239033,-25.517514817140732,-1.225037
23.612987763000003,0,0.0,0.0,0.0,0,58.17734117845225,23.63973359630781,14.499264217658533,-0.6980429182085374,14.516057549112093,0.0,0.0,-4.533298848949506,357.2437183279384,-29.019983999104763,-1.207917
23.655727379,0,0.0,0.0,0.0,0,58.79599982169973,23.593179671578742,14.482240262328892,-0.9902745848067435,14.516057549112093,0.0,0.0,-2.434669393725447,356.08828668260304,-24.30196141369699,-0.666370
23.709397329,0,0.0,0.0,0.0,0,59.57239125113822,23.52856771385306,14.461889177883341,-1.2528719710149407,14.516057549112093,0.0,0.0,0.20066869472171014,355.04867627172183,-13.860775330730352,0.104992
23.762319641,0,0.0,0.0,0.0,0,60.33774543733425,23.46224218293074,14.45010846827255,-1.3821331427515082,14.516057549112093,0.0,0.0,-0.31089779784144445,354.5363581440754,-6.4691057098139195,0.370270
23.815609725000005,0,0.0,0.0,0.0,0,61.10806633183827,23.391514323615212,14.444143621192284,-1.4431361056755632,14.516057549112093,0.0,0.0,0.22892728393023656,354.2944271808251,-3.0365326255711977,0.316860
23.858183851000003,0,0.0,0.0,0.0,0,61.72324759798722,23.33247066016411,14.441691593504375,-1.4674708471513966,14.516057549112093,0.0,0.0,0.27218114251237374,354.19789006206787,-1.6110463010804283,0.238113
23.912629660000004,0,0.0,0.0,0.0,0,62.50975123398267,23.25471084126105,14.440147523702318,-1.4825876914530143,14.516057549112093,0.0,0.0,-0.2295152705402892,354.1379124896265,-0.7140217497263642,0.145589
23.968140555,0,0.0,0.0,0.0,0,63.31148295538346,23.173848419074936,14.439549687787874,-1.4883989999456708,14.516057549112093,0.0,0.0,0.31186494203710474,354.11485383751216,-0.1771087596561049,0.091648
24.010442470000005,1,-0.3672258284692591,1.0,0,0,63.92483229417549,23.110788370236758,14.557643217203555,-1.5074392112237558,14.635482534406837,2.823157894736842,0.0,-1.7538764412233285,354.08811076756905,-1.9907686402544154,-0.117758
24.06418055,1,-0.4072108653771544,1.0,0,0,64.71041077055848,23.022260169699464,14.700331673674578,-1.6004198873642335,14.787193619206823,2.823157894736842,0.0,-4.345216434595321,353.7866996473149,-9.973918840867132,-0.711274
24.119733485,1,-0.31850049067475594,0.9727272727272763,0,0,65.52877626528318,22.912559718499093,14.825873201831465,-1.8410986460198666,14.939751016036396,2.7461626794258476,0.0,-6.985942989545693,352.9211654083016,-21.541793826768657,-1.362967
24.162537317000005,1,-0.343848116867253,0.9545454545454745,0,0,66.16243464006111,22.80986134640523,14.900705788654198,-2.150583242840934,15.05510017517057,2.6948325358852236,0.0,-8.994769323925453,351.7873482083219,-31.531807383466685,-1.818102
24.216074942000002,1,-0.3776434890806357,0.9090909090909044,0,0,66.95650798146322,22.651927537516027,14.950012926080243,-2.703575013897191,15.19250487397439,2.5665071770334795,0.0,-10.45695806241848,349.7493606186482,-44.31728055136148,-2.284124
24.268829748000005,1,-0.2523375388422212,0.8636363636363885,0,0,67.73861204355393,22.462042462505625,14.945194219562499,-3.373161000981298,15.321130682785311,2.4381818181818886,0.0,-8.042858544132375,347.2813359071915,-47.28683146734654,-1.935125
24.323286486000004,1,-0.25350885822897723,0,0.18181818181816267,0,68.5398339809745,22.23862094615554,14.690152159189752,-4.014779062045733,15.228887726199446,-1.6938759090907305,0.0,-7.578027512355706,344.71448611937194,-46.76205717922695,-1.279226
24.366106934000005,1,-0.1250011255935962,0,0.25454545454546507,0,69.16016289173352,22.044761647752008,14.445957700934843,-4.488962893634599,15.127342190802288,-2.3714262727273705,0.0,-5.6033275832106435,342.7377962988581,-44.523460368298316,-0.813789
24.41909422,1,-0.08833512218625357,0,0.3272727272727485,0,69.91490706160837,21.78789360726172,14.1144633569324,-4.975605552261699,14.96578519376397,-3.0489766363638333,0.0,-3.128328153521878,340.58151711998516,-35.971586918351264,-0.019719
24.462046388,0,0.0,0.0,1.0,0,70.51199234196056,21.574069755315954,13.613075888431592,-5.180899310339612,14.565629159362635,-9.316317499999998,0.0,-1.0676383799785671,339.16404791064446,-29.34749790475997,0.909627
24.526241810000005,0,0.0,0.0,1.0,0,71.37160106945487,21.258084472040323,12.922558431102942,-5.30097481612227,13.967564225964106,-9.316317499999998,0.0,0.025813186996677062,337.6960250090139,-17.62366721333388,1.752196
24.569597894,0,0.0,0.0,1.0,0,71.92913038934753,21.045120595160963,12.487539892596828,-5.294697163227665,13.563645181863476,-9.316317499999998,0.0,0.025813186996677062,337.0231323108596,-13.734255719580192,1.700227
24.623012645,0,0.0,0.0,1.0,0,72.58980611957602,20.78184384563262,11.971246163710331,-5.235460812067748,13.06601640236405,-9.316317499999998,0.0,0.025813186996677062,336.37849398101486,-10.582572331859868,1.452050
24.675659788,0,1.0,0.0,1.0,0,73.21428288512752,20.525674421921337,11.489076655903588,-5.1132471374163915,12.575538902708134,-9.316317499999998,0.0,3.0135856033148825,336.0084050326204,-1.7907277332957887,1.783152
24.728569632,0,1.0,0.0,1.0,0,73.82011008305716,20.283816721288932,11.063483632179773,-4.8568396024678595,12.08261399712868,-9.316317499999998,0.0,6.133636416823546,336.298654704443,13.338073995370094,2.541730
24.780398172,0,1.0,0.0,1.0,0,74.39569735763139,20.07096211442515,10.710874236752911,-4.453276497210553,11.599762862927205,-9.316317499999998,0.0,9.30400321919953,337.4238499005673,30.26651571972421,3.301926
24.822449622000004,0,1.0,0.0,1.0,0,74.85112136108462,19.920864888423473,10.463169182854866,-4.017625465146072,11.207998203391806,-9.316317499999998,0.0,11.959266121651657,338.99431535878966,44.43784328506881,3.910857
24.876764478000002,0,1.0,0.0,1.0,0,75.42486655984918,19.763580311251076,10.172451974617,-3.324707088135107,10.701983759929048,-9.316317499999998,0.0,15.498875696652423,341.90082806359675,62.47867329373675,4.739114
24.927989772,0,1.0,0.0,1.0,0,75.95050504223532,19.659462909531072,9.899924221003756,-2.5567689209417344,10.224752656994221,-9.316317499999998,0.0,18.95075853129458,345.51912671203934,78.601744378039,5.627561
24.982160717000003,0,1.0,0.0,1.0,0,76.48746821413752,19.60242296849272,9.57843952785244,-1.6533090141870446,9.720078934099158,-9.316317499999998,0.0,22.72112225961029,350.2068237635633,94.1810547776885,6.743675
25.025566434,0,1.0,0.0,1.0,0,76.90043512541087,19.59935339227693,9.273447801102236,-0.8862198741107238,9.31569749321202,-9.316317499999998,0.0,25.831220406379252,354.54108928363934,105.31300233204144,7.801577
25.079932699,0,1.0,0.0,1.0,0,77.39005072892944,19.651036002465624,8.808723326099651,0.09203459260458127,8.809204107182895,-9.316317499999998,0.0,28.651269707653853,360.5986113609481,116.41688397443555,9.214425
25.134689321,0,1.0,0.0,1.0,0,77.84582204514537,19.757884487995312,8.237265145873284,1.0109860015330328,8.299074031403416,-9.316317499999998,0.0,28.651269707653853,366.99710154844604,115.80026142595216,9.546600
25.17777653,0,1.0,0.0,1.0,0,78.17548239580097,19.87190223971966,7.727973811698505,1.6283282390255485,7.897659912170564,-9.316317499999998,0.0,28.651269707653853,371.8985002047782,111.39317610098513,9.745267
25.231772792000005,0,1.0,0.0,1.0,0,78.55022568137117,20.044685302794942,7.043756612944843,2.250733868354606,7.394613591565329,-9.316317499999998,0.0,28.651269707653853,377.7205530006656,104.02473190028017,10.175372
25.285362821000003,0,1.0,0.0,1.0,0,78.87879213051598,20.2409647510453,6.343560466918219,2.7027981734349225,6.895351866567133,-9.316317499999998,0.0,28.651269707653853,383.07737900390015,95.80791667319077,10.745081
25.339096966000003,0,1.0,0.0,1.0,0,79.16534358592364,20.453766859072683,5.646369413564459,3.001884104525162,6.394747511156096,-9.316317499999998,0.0,28.651269707653853,387.99728043942815,87.30479866116963,11.375189
25.383501885000005,0,1.0,0.0,1.0,0,79.37109826002568,20.635785754651355,5.0877104643316375,3.1445583644720414,5.981057187190299,-9.316317499999998,0.0,28.651269707653853,391.718944239588,80.34222270882225,11.896504
25.436868918000005,0,0.0,0.0,0.0,0,79.59246365132407,20.86565457063229,4.870978294149038,3.47082346632174,5.981057187190299,0.0,0.0,23.975882840342752,395.4718337816747,62.439567175698954,12.192342
25.491169057000004,0,0.0,0.0,0.0,0,79.80822263969475,21.108391975565244,4.6791312929659705,3.7254228511173513,5.981057187190299,0.0,0.0,19.218748285499537,398.52604288592323,50.37212867425774,10.310389
25.534163429,0,0.0,0.0,0.0,0,79.97700671283386,21.302399475189958,4.54800595251954,3.8844159061933055,5.981057187190299,0.0,0.0,15.452091026943224,400.50037780063053,41.50269630332982,8.539034
25.587124828000004,0,0.0,0.0,0.0,0,80.1851433663985,21.541185990116066,4.415870030935494,4.033997638364019,5.981057187190299,0.0,0.0,10.812241002696215,402.41240928898117,30.71123777783074,6.294722
25.641753742000002,0,0.0,0.0,0.0,0,80.4025789551812,21.785065938326124,4.317843759611047,4.138752268985022,5.981057187190299,0.0,0.0,6.0263030793520915,403.78678691718414,19.60703411950427,3.965839
25.695329336000004,0,0.0,0.0,0.0,0,80.62095723788649,22.019556418581562,4.262652350458022,4.195573860102503,5.981057187190299,0.0,0.0,1.332644569312839,404.54562177372975,8.720790347718163,1.679655
25.735825151000004,0,0.0,0.0,0.0,0,80.79051880438796,22.19250546950301,4.247912627104874,4.2104968102260445,5.981057187190299,0.0,0.0,-0.4577811394798882,404.74655348294704,2.188232896081164,0.341669
25.788558575,0,0.0,0.0,0.0,0,81.01390109861572,22.41516747127745,4.244240245441604,4.21419859705431,5.981057187190299,0.0,0.0,0.44819117806652675,404.796504714788,0.32410285198349187,0.034416
25.842208248000002,0,0.0,0.0,0.0,0,81.24156143653302,22.641299875860035,4.2437877587406145,4.214654260458863,5.981057187190299,0.0,0.0,-0.49046747626829834,404.80265634150777,-0.011395676154347856,-0.010681
25.895588947000004,0,0.0,0.0,0.0,0,81.46811686123813,22.866261848357528,4.2438064088699194,4.214635481328762,5.981057187190299,0.0,0.0,0.4907011039770694,404.802402803255,0.03915948472636197,0.008200
25.937836353000005,0,0.0,0.0,0.0,0,81.64736695200632,23.044359242356077,4.24363787679801,4.214805173082857,5.981057187190299,0.0,0.0,0.556608187250695,404.8046938630839,0.12938502606810628,0.029319
25.991605269,0,0.0,0.0,0.0,0,81.87543102493045,23.271097174786068,4.243184074088603,4.215262030982366,5.981057187190299,0.0,0.0,-0.40656681852292853,404.81086249242605,0.06213487360983698,0.012137
26.046031366000005,0,0.0,0.0,0.0,0,82.10624992615834,23.500639193391173,4.242674393880252,4.215775025301227,5.981057187190299,0.0,0.0,0.4858287768896084,404.8177898786086,0.16320673244136505,0.035104
26.099067440000002,0,0.0,0.0,0.0,0,82.33115772363792,23.72433495872133,4.242224473211267,4.21622776843568,5.981057187190299,0.0,0.0,-0.4684066935736189,404.82390433470044,0.03060613453904686,0.004416
26.152567646000005,1,0.25162496102173554,0.827272727272703,0,0,82.55897316128872,23.953765545095454,4.324467896760726,4.310720585180315,6.106008070221612,2.33552153110041,0.0,4.203567826051392,404.9087845888467,4.824050764091466,1.071365
26.204993879000003,1,0.26534285316490164,0.7999999999999629,0,0,82.77869424094473,24.19078208999908,4.3700130243819615,4.432416611599414,6.224414097089815,2.2585263157893687,0.0,6.896740240800896,405.40618356794243,13.89289207447713,2.940250
26.247932509000005,1,0.28021244694800695,0.7909090909090668,0,0,82.95498243093208,24.39438615835685,4.382257401657639,4.554326186425418,6.320290099888093,2.2328612440190705,0.0,8.855000342395277,406.1030610297365,18.277680854050555,3.741444
26.300928382,1,0.2526497516387355,0.7818181818181584,0,0,83.17077823515432,24.65459256992483,4.382853065805002,4.714758324079392,6.437262387918659,2.2071961722487377,0.0,7.892205941324735,407.0893770238493,18.476229241299027,3.639289
26.354152933000005,1,0.25027296231226653,0.7727272727272599,0,0,83.38756141671062,24.92388489048583,4.379075456679334,4.875489829823485,6.553373401234174,2.181531100478433,0.0,6.908332056978284,408.0703999559475,18.391080632015814,3.532583
26.407459030000002,1,0.24139007240086813,0.781818181818145,0,0,83.60483486769918,25.201420628084325,4.374458184517264,5.036542701393653,6.671030414490085,2.2071961722487,0.0,6.908332056978284,409.02425301932067,17.661384488826098,3.310942
26.450161176000005,1,0.2275098146444529,0.7909090909090634,0,0,83.77915743265234,25.429289942664383,4.371172776779763,5.1649515926936465,6.766378381329937,2.232861244019061,0.0,6.975796318684296,409.7582821343548,16.977007899048875,3.123226
26.503509491,1,0.2140759270078316,0.7999999999999764,0,0,83.99719649565887,25.72099369332585,4.367248903623091,5.32504210922289,6.886866954660446,2.258526315789407,0.0,6.1111547807788495,410.6436516222434,16.235411852650348,2.917584
26.55695184,1,0.20164006113352087,0.8000000000000317,0,0,84.21627396150616,26.020742522101,4.36435937482161,5.482551888324962,7.0075679062545575,2.258526315789563,0.0,5.182954184441387,411.47862354939696,15.247061831707919,2.675281
26.610348696,0,0.0,0.0,0.0,0,84.43660433461464,26.323173538280344,4.300901440415798,5.532472752811187,7.0075679062545575,0.0,0.0,0.7522397577951531,412.13878214423454,8.175344210216092,1.282283
26.653352621,0,0.0,0.0,0.0,0,84.61809402737444,26.56374342318165,4.280536589225234,5.548244269052407,7.0075679062545575,0.0,0.0,-0.07086584903753042,412.3493856110665,2.5235596073754563,0.310158
26.706196387000002,0,0.0,0.0,0.0,0,84.84352422836047,26.85752526736623,4.274657614122699,5.5527750037969055,7.0075679062545575,0.0,0.0,-0.07086584903753042,412.410072007778,0.3408184205784872,0.006676
26.759535567000004,0,0.0,0.0,0.0,0,85.07160780150386,27.1536465564512,4.274299408015929,5.553050740935433,7.0075679062545575,0.0,0.0,-0.07086584903753042,412.41376803157283,-0.0894044133260283,-0.030653
26.812880437,0,0.0,0.0,0.0,0,85.2998067717316,27.44972927538338,4.275033121699475,5.552485908954774,7.0075679062545575,0.0,0.0,-0.07086584903753042,412.4061972677813,-0.17261362054609633,-0.033465
26.855496168000005,0,0.0,0.0,0.0,0,85.48214395317679,27.68623424183004,4.275782462013685,5.551908887788512,7.0075679062545575,0.0,0.0,-0.07086584903753042,412.3984644668239,-0.1871929641354728,-0.033224
26.908254258000003,0,0.0,0.0,0.0,0,85.70792060530285,27.978992425741104,4.276753246441095,5.551161106455517,7.0075679062545575,0.0,0.0,-0.07086584903753042,412.3884452828694,-0.19150382204136374,-0.032956
26.960963598000003,0,0.0,0.0,0.0,0,85.9335392237713,28.271441069963252,4.277733879746806,5.550405464003078,7.0075679062545575,0.0,0.0,-0.07086584903753042,412.37832308089645,-0.19235229260939832,-0.032858
27.012974136,0,0.0,0.0,0.0,0,86.15621709309723,28.559973624423186,4.278703490656844,5.549658043502304,7.0075679062545575,0.0,0.0,-0.07086584903753042,412.368313298027,-0.192518708505983,-0.032830
27.06750922,0,0.0,0.0,0.0,0,86.38975761632852,28.862469563610947,4.2797204665895086,5.548873821652802,7.0075679062545575,0.0,0.0,-0.07086584903753042,412.35781309325165,-0.19255287103484378,-0.032822
27.109742717,0,0.0,0.0,0.0,0,86.57065601405066,29.096701495174596,4.28050800775372,5.548266319880937,7.0075679062545575,0.0,0.0,-0.07086584903753042,412.3496807664988,-0.19255856697420642,-0.032820
27.164415622000003,0,0.0,0.0,0.0,0,86.80488539634744,29.399885709441875,4.281527400076529,5.5474797055205896,7.0075679062545575,0.0,0.0,-0.07086584903753042,412.3391529700862,-0.19256030260792134,-0.032820
27.218297579000005,0,0.0,0.0,0.0,0,87.03578070348395,29.69864167206535,4.282531907879836,5.546704284416105,7.0075679062545575,0.0,0.0,-0.07086584903753042,412.3287774332261,-0.19256062296040038,-0.032820
27.271569835000005,0,0.0,0.0,0.0,0,87.26411649810328,29.99397595342812,4.283524911924492,5.5459374581481855,7.0075679062545575,0.0,0.0,-0.07086584903753042,412.31851929238525,-0.19256068361851397,-0.032820
27.314169669000005,0,0.0,0.0,0.0,0,87.44674615258673,30.230114331594798,4.284318881500876,5.545324127802086,7.0075679062545575,0.0,0.0,-0.07086584903753042,412.3103162389529,-0.19256069427420736,-0.032820
27.367593270000004,0,0.0,0.0,0.0,0,87.6758261357919,30.526213795097657,4.285314458796265,5.544554801785312,7.0075679062545575,0.0,0.0,-0.07086584903753042,412.30002895314686,-0.19256069744270574,-0.032820
27.420967969,0,0.0,0.0,0.0,0,87.90474951471285,30.822001141110547,4.286308986828228,5.543786001479896,7.0075679062545575,0.0,0.0,-0.07086584903753042,412.28975108386106,-0.19256069805368634,-0.032820
27.474334387000003,0,0.0,0.0,0.0,0,88.13369041962436,31.11770153610065,4.287303222668937,5.543017142104238,7.0075679062545575,0.0,0.0,-0.07086584903753042,412.27947480915446,-0.19256069817171442,-0.032820
27.516793579000005,0,0.0,0.0,0.0,0,88.31587741657604,31.352936256367123,4.288094154397113,5.5424052976838665,7.0075679062545575,0.0,0.0,-0.07086584903753042,412.2712988374986,-0.19256069819234073,-0.032820
27.570148044000003,0,0.0,0.0,0.0,0,88.54486223524738,31.648496695243704,4.28908791995575,5.541636290452355,7.0075679062545575,0.0,0.0,-0.07086584903753042,412.26102486446626,-0.19256069819850738,-0.032820
27.623534738,0,0.0,0.0,0.0,0,88.77403841587142,31.944194566404157,4.29008214776764,5.540866640352777,7.0075679062545575,0.0,0.0,-0.07086584903753042,412.2507446853951,-0.1925606981996997,-0.032820
27.676918971000003,0,0.0,0.0,0.0,0,89.00325707965068,32.23983768520668,4.291076191648626,5.540096847369656,7.0075679062545575,0.0,0.0,-0.07086584903753042,412.24046498021573,-0.19256069819992996,-0.032820
27.730123166000002,0,0.0,0.0,0.0,0,89.23175547591677,32.53444282728156,4.29206674569252,5.539329473076079,7.0075679062545575,0.0,0.0,-0.07086584903753042,412.23021994327934,-0.19256069819997437,-0.032820
27.772826849,0,0.0,0.0,0.0,0,89.41519496830772,32.77087440643888,4.292861702256427,5.538713421550978,7.0075679062545575,0.0,0.0,-0.07086584903753042,412.2219968922651,-0.1925606981999822,-0.032820
27.826642283,0,0.0,0.0,0.0,0,89.64641482428657,33.06878938333955,4.293863385290713,5.537936907299383,7.0075679062545575,0.0,0.0,-0.07086584903753042,412.2116341547201,-0.19256069819998453,-0.032820
27.879524214000003,0,0.0,0.0,0.0,0,89.87367633718092,33.361495871481374,4.294847555923831,5.537173686290144,7.0075679062545575,0.0,0.0,-0.07086584903753042,412.20145117316457,-0.192560698199985,-0.032820
27.922523166,0,0.0,0.0,0.0,0,90.0585038280423,33.59946936036402,4.2956476972371975,5.536552972923644,7.0075679062545575,0.0,0.0,-0.07086584903753042,412.1931712649456,-0.19256069819998506,-0.032820
